@ HyperIMU - ianovir
@ Date:Tue Mar 31 16:34:34 EDT 2026, Sampling Rate:50ms

icm45631_accelerometer.x,icm45631_accelerometer.y,icm45631_accelerometer.z,mmc5616_magnetometer.x,mmc5616_magnetometer.y,mmc5616_magnetometer.z,orientation_sensor.x,orientation_sensor.y,orientation_sensor.z,icm45631_gyroscope.x,icm45631_gyroscope.y,icm45631_gyroscope.z
1.6808044,4.5699325,10.491167,8.662,-10.5286,-17.6656,276.42975,-38.570263,-1.3667291,-0.09719219,-2.2834668,-0.75790256
-0.9258079,3.7860558,7.776517,8.7108,-9.601399,-20.374,281.41296,-37.969723,-1.020643,-0.29480743,0.26288188,-1.0843858
-1.6488568,4.1998787,6.848988,9.9552,-8.5278,-22.6798,283.22473,-37.404957,-3.0163255,0.25613704,-0.26043376,-0.7915101
-2.4149265,4.2127476,6.609044,10.3578,-8.6742,-24.2414,285.38654,-38.261257,-3.214578,0.07452622,-0.26299846,0.0060120597
0.12771569,5.421819,8.169166,10.6505995,-9.0524,-26.4862,285.0289,-38.49893,-2.3678296,0.5474305,0.046614278,0.32913113
-0.9674071,6.8343983,5.8726773,11.5412,-9.4428,-27.767199,284.71295,-40.55061,-2.42606,0.5317259,0.18099464,-0.16858748
-1.4532056,7.5260234,7.329624,12.4562,-9.076799,-29.902199,284.8087,-41.522697,-4.432015,-0.40112594,0.37634495,-0.45759934
-2.3747487,7.8369703,7.948151,13.7616,-9.2476,-32.4276,285.33722,-40.415813,-5.9267673,-0.27517247,0.44267744,-0.45918146
-2.6078842,7.3868604,8.940847,14.884,-8.588799,-34.2698,285.71716,-38.64119,-6.967466,-0.85497814,-0.36367133,0.070829056
-2.0829554,5.49372,9.583765,14.6522,-9.8088,-37.0148,286.3556,-37.024574,-5.4995437,-0.01292343,-0.1949173,0.2834328
-2.6672904,5.709647,8.361899,14.457,-12.2732,-39.5158,285.8434,-36.79766,-4.330497,-0.30380052,-0.35159725,0.3922494
-0.6254852,4.4262805,8.142081,14.518,-13.261399,-41.48,286.14395,-35.701496,-3.4690137,-0.40573907,-0.6268197,0.058355283
-0.92281514,3.5323453,6.2653265,12.9808,-14.4936,-43.065998,287.2514,-34.371933,-2.7952297,-0.27077582,0.34168816,-0.11426244
-1.6353894,4.583325,5.9106107,14.5912,-16.5066,-43.9932,286.4214,-33.85335,-4.1194997,-0.08843224,0.66665584,0.37366366
-1.6798317,5.8028717,6.6295447,15.591599,-19.007599,-44.9204,284.03128,-34.083565,-5.257922,0.14648774,0.77344066,0.37461293
-2.4009354,6.1243677,6.4499044,16.6042,-21.2158,-45.6524,282.27606,-35.353268,-6.8767247,0.5234489,0.66777164,0.2723746
-0.28079498,7.3327665,8.19251,16.1894,-26.2666,-45.079,281.2168,-38.69687,-7.416413,0.24447933,-0.38570443,0.21999808
-0.62578446,8.080281,9.643171,14.9206,-28.1576,-46.103798,282.30576,-38.22403,-7.3286967,-0.5682146,0.25776914,-0.5435335
-2.0202572,6.504896,10.318561,15.554999,-27.254799,-46.2746,283.8369,-34.953606,-8.841396,-1.3082808,-0.6268197,-0.604187
-0.077138186,4.1281276,11.842021,11.760799,-27.254799,-46.3844,286.54385,-32.36405,-6.594619,-0.04499885,-1.5624527,-0.09789165
1.3649943,3.5779848,10.951901,7.4542,-29.7924,-45.3718,288.74432,-33.34398,-3.656087,0.683393,-0.5922961,-0.42748907
-0.3202993,2.6828527,7.8975735,7.198,-31.049,-43.6516,290.7485,-33.010876,-3.444291,0.57865655,0.13681182,-1.1475374
-1.6744448,3.5412488,5.421146,9.0402,-32.3422,-41.3336,292.47995,-33.942276,-6.4820724,0.13494658,0.3787764,-0.62367207
-2.809521,5.7938185,5.9763017,9.6258,-32.452,-39.100998,292.10428,-34.53202,-8.7719965,0.3739468,0.82781565,-0.76378137
-6.579117,6.3722425,7.0774846,11.1142,-32.3422,-36.661,293.39368,-36.774353,-13.5888,0.4902743,-0.29031086,-1.3519973
-4.5132947,3.9566429,8.848371,10.736,-31.6224,-34.6968,295.68417,-37.54065,-14.0954275,0.7152186,-0.42444143,-0.29980358
-3.4002154,5.580884,8.103325,9.6502,-31.268599,-32.1592,293.58218,-40.232903,-14.1495905,0.45473486,0.862156,0.83004725
-2.7563248,5.8767924,6.3863087,8.8206,-31.72,-30.024199,288.4688,-42.159733,-14.681249,0.03019353,0.77720445,1.1667892
-0.822932,6.6463785,9.363274,6.1,-30.060799,-29.8046,284.96472,-42.258263,-12.064902,-0.2658796,-0.012457121,0.90264165
-2.8645875,5.4122424,7.866299,4.4895997,-27.9258,-30.0486,283.85623,-41.01407,-12.33331,-0.6451556,0.08866539,-0.29903752
-2.356867,3.6186862,7.9153056,4.9898,-25.4614,-30.866,285.35434,-34.43671,-14.389697,-0.8113283,0.13517974,-0.09377814
-1.9969887,3.7172973,5.954903,4.9898,-23.1434,-32.3666,283.85107,-33.160027,-15.393885,-0.042767227,0.7420147,0.54283404
-3.352855,5.4391026,4.718074,4.2212,-22.3016,-30.8904,280.47693,-35.063725,-15.7493515,0.5300938,0.58130455,1.0037475
-2.655918,6.2190886,5.7068043,3.2818,-21.045,-31.5492,277.40942,-37.266876,-14.813059,0.35063133,0.10283786,1.2053097
-1.6951696,7.069404,8.822484,1.8299999,-19.886,-31.72,275.02545,-39.277733,-12.419741,0.3710157,0.19601646,0.8942647
-1.7946787,7.6845646,8.250195,2.074,-19.007599,-32.086,273.13446,-40.71737,-12.481823,0.28631392,0.6657232,0.29499063
-1.3300538,7.7022967,7.551237,2.5254,-17.726599,-33.427998,272.94788,-41.91501,-12.58099,0.3702163,-0.35326263,0.28589758
-0.13340193,6.954782,7.166818,2.6596,-17.0068,-35.062798,275.24988,-41.9056,-11.896105,-0.44692418,0.13289817,-1.2026784
-1.7426047,3.9837272,7.487866,4.88,-14.4204,-38.308,279.3134,-38.96778,-13.5699835,-0.8772611,-0.7613333,-0.9775176
-0.119335994,4.830003,9.601646,3.2696,-12.3586,-39.723198,284.95154,-34.44454,-9.971031,-0.7949242,-2.3165581,-0.44111198
-1.5508442,3.2791586,8.688109,-0.3416,-10.736,-42.8098,291.60403,-30.299849,-5.673582,-0.13033345,-1.0327253,-0.6208076
-1.9316719,3.496133,7.750031,-1.1345999,-10.7848,-44.468998,294.2329,-30.297594,-4.6680427,0.4252408,-0.1639577,0.08658365
-2.5085998,4.6621842,7.184775,-1.4762,-11.7852,-44.6886,295.08255,-32.335922,-4.208873,0.90422374,-0.16004403,0.107967265
-1.4817116,6.335806,7.233033,-0.93939996,-13.2492,-45.8964,295.9402,-34.882282,-3.8253882,0.44479248,-0.14334016,0.3835894
-1.4223802,7.549741,9.148619,-0.7442,-13.6396,-48.2388,296.38535,-36.00798,-4.103758,0.13494658,0.50273144,-0.38928503
-3.920281,5.98109,7.156269,1.8055999,-14.7132,-48.9464,297.22116,-36.468155,-6.7085843,0.14388974,0.9503051,0.048213053
-1.3254151,7.051298,9.455525,1.6836,-15.323199,-50.2152,296.40002,-38.15195,-9.184403,0.2081405,-1.0251977,0.9569833
-0.35262102,5.8339963,7.162853,0.5978,-17.5924,-51.8378,296.67606,-38.991386,-6.527785,-0.258352,0.17904612,0.49520385
-0.47278002,5.7510967,9.347487,1.708,-17.5436,-53.3872,297.6394,-37.03935,-6.0050807,-0.62137383,0.011374617,-0.3324952
-1.6063597,4.462792,7.1151185,3.5867999,-18.2634,-55.2538,298.81784,-36.006676,-7.155619,0.043216884,0.3904841,0.37288094
-0.26830024,5.417854,5.153519,4.7702,-20.837599,-56.0834,297.8128,-37.357418,-7.212372,0.66938704,0.47268778,0.71298695
-0.43552026,6.295553,5.7382283,5.612,-24.705,-56.071198,296.8899,-39.352,-6.857227,0.46774158,0.09502718,0.17215142
-0.75379944,6.7016697,7.1614313,6.6612,-28.230799,-56.449398,297.91656,-40.420033,-6.8576775,0.1688706,0.05562404,0.036138974
-0.02558803,8.001198,8.319851,7.5151997,-31.8664,-57.1082,298.8362,-40.879406,-6.7620683,0.15065122,-0.20311102,0.08242018
0.10407296,8.196699,8.266655,6.7588,-35.5508,-57.1936,300.61023,-41.5393,-5.7947707,0.37965906,-0.3239351,0.11051531
0.5977274,6.989947,10.015843,4.88,-40.0282,-56.3274,303.2037,-41.555756,-4.514606,-0.21959838,-0.49763533,-0.5973256
0.40753803,5.2478657,10.787824,5.7462,-40.809,-56.73,307.05698,-40.012627,-5.1918063,-0.47436982,0.08245348,-0.92390865
-1.3866917,4.582278,8.593089,7.4908,-41.980198,-55.1928,310.05292,-37.806286,-7.079195,-0.13764453,0.22965735,-0.47430322
-0.6631191,4.6895676,5.3007627,7.6493998,-45.2742,-53.9118,309.7908,-37.096916,-7.7867455,0.70772433,-0.03980283,0.5489127
0.96621,5.837887,5.185242,4.5383997,-50.1908,-50.227398,308.68216,-39.893383,-5.4717755,0.97645175,-0.94775707,0.34177142
0.76307696,5.877017,5.9644804,2.7572,-54.0826,-46.811398,309.97867,-41.97096,-4.269959,0.32518414,-0.22104728,-0.8560607
-0.90740246,5.8544965,6.143522,4.7336,-56.851997,-44.042,311.00696,-42.607235,-5.909085,0.4645607,0.4210107,-0.7991709
-2.3659203,8.809166,3.5993829,7.2956,-59.7922,-39.9184,309.10672,-46.6523,-8.683009,0.33857387,0.43406737,0.3022184
-2.5818472,10.0442,6.037653,6.954,-63.073997,-38.0396,307.53638,-47.7136,-8.681562,-0.3203878,0.049362175,0.0022149694
-0.81305593,8.386215,8.41285,6.6977997,-64.049995,-36.2096,306.60977,-46.214214,-7.798382,-0.6734673,-0.5424177,0.59659284
-1.3289316,7.638102,7.63481,2.745,-65.5262,-33.916,305.40417,-45.36683,-5.8866854,-0.041001912,-0.26859418,0.24965869
0.14320318,6.287847,8.525303,0.6222,-65.7458,-31.1954,305.16803,-44.321117,-4.481167,-0.36773488,-0.5530595,-0.21685049
-0.17140988,4.692336,6.886547,1.6958,-66.2948,-29.2678,305.87234,-41.93888,-3.4912698,-0.1383773,-0.19496727,-0.34295386
0.54969376,4.8466873,6.5250974,1.7689999,-66.7096,-27.1328,305.09534,-41.85357,-3.7296882,0.25287288,0.38801932,-0.006128637
-1.1508628,5.7640405,4.025102,2.7206,-67.2708,-22.0698,302.6815,-43.416595,-5.9443264,0.41419926,0.97745097,-0.074942574
-2.2899792,7.293262,4.615572,2.9768,-68.137,-18.6782,300.65836,-44.744328,-7.239696,0.42763898,0.0780402,-0.1819106
-1.2974329,7.9454575,6.5568204,3.1232,-69.1618,-14.8108,300.297,-46.88504,-8.107559,-0.13747798,-0.21420252,-0.028428216
-0.7955483,9.478121,8.862661,2.3302,-68.9178,-12.9564,299.51648,-46.13088,-7.3606787,-0.2134198,-0.21685049,0.19608307
1.3094786,8.190041,8.447641,1.8299999,-68.625,-12.078,298.24536,-45.35383,-6.40155,-0.4955869,-0.4248411,-0.08441865
1.3197289,6.1217494,9.263017,2.4522,-68.0028,-11.0898,298.56586,-43.519405,-6.3830605,-0.4919397,-0.35319602,-0.46792477
1.3640217,4.9714103,8.338331,2.9889998,-67.1244,-11.651,299.2777,-39.64344,-3.2837765,-0.5161045,-0.47428656,-0.4695735
-0.7909096,4.349292,6.9546323,5.8194,-66.5022,-12.505,299.81934,-36.20673,-1.1817662,-0.15281624,-0.07807351,-0.16234227
-0.24899697,5.0039563,5.244274,4.6116,-66.6242,-10.37,298.5652,-36.215607,-1.151772,0.1417747,0.2613997,0.35832542
-0.92176765,6.2805896,4.845191,3.8063998,-66.4656,-6.8564,295.85773,-37.296524,-1.37798,0.63119966,0.11784303,0.16762155
-1.282095,7.730578,5.5484877,4.3919997,-66.5754,-4.6238,294.9042,-39.498444,-1.2514242,0.4216269,-0.30994582,-0.33053005
-2.7418098,8.721029,6.620192,5.6974,-66.233795,-2.7572,295.05643,-42.90266,-3.4100754,0.005812213,0.28458193,-0.431053
-3.0631566,9.086893,7.19308,7.5762,-66.4168,-1.1956,293.60733,-43.01627,-4.241099,0.10623526,0.13056661,0.15411523
-0.9886557,9.03669,7.752575,5.0629997,-66.734,0.0488,291.01443,-43.132275,-3.6520696,-0.51222414,-0.61101514,0.7478936
-0.9305963,7.0673094,10.28781,3.1598,-66.843796,-0.3416,289.77533,-41.743183,-0.9347853,-0.018319296,-0.2524732,0.10437002
-0.05484218,6.145916,7.0510736,3.5746,-66.5632,1.0248,287.64853,-41.749256,-0.3185941,-0.037804365,0.016737174,0.5492458
0.48168346,5.432668,6.8563204,2.3912,-65.941,2.2082,286.2461,-41.342007,0.9693593,-0.18594085,-0.41534838,-0.2809014
-0.6900538,4.3041763,5.687351,3.0133998,-65.5384,2.5132,285.97897,-41.169247,0.1888414,0.15844525,0.4888254,-0.11614433
0.19684827,5.5493107,5.326949,2.013,-65.2212,5.7339997,282.69736,-42.823536,-0.59927124,1.0438001,0.37752736,0.41226742
-0.9166052,7.4533744,5.103615,2.3668,-63.4156,10.8336,281.1668,-46.10526,-0.67381877,0.7619994,-0.25368893,-0.2997703
-0.43312606,7.353566,8.296208,4.2943997,-62.5128,12.7123995,281.66565,-47.44324,-1.0022498,0.08749962,-0.3933819,-0.53094316
0.08806173,8.881665,8.209942,4.8434,-61.2684,13.7128,280.88,-47.307396,-1.3577859,-0.13564606,0.14752029,0.10330417
0.90268886,9.5322895,8.024541,5.4533997,-60.8658,14.115399,279.5851,-46.57637,-1.2893308,-0.6522502,-0.3853547,-0.24144831
1.1997195,6.332289,10.207305,6.9783998,-60.2314,13.066199,280.8553,-44.603703,-1.2851702,-0.16127641,-0.5894983,-0.7349035
0.20088848,4.734908,6.4446673,9.6624,-58.254997,12.9198,281.4304,-42.99653,-0.9527186,0.14535528,0.12332217,-0.016187595
0.79412675,5.1396775,5.1318216,8.783999,-57.6572,13.1272,278.92462,-42.846035,-0.97080576,-0.098890886,0.52303255,0.3670021
0.06584055,5.5523033,2.92145,6.3561997,-56.1078,14.3228,274.9994,-43.30433,-1.773706,0.3075976,0.39523047,0.2655465
-0.87538,6.607099,3.8497267,7.3199997,-54.2656,16.2138,273.54153,-44.205463,-1.4008354,0.14090869,-0.8022852,-0.2758386
-1.0263643,7.568146,7.9806223,9.455,-53.3872,15.945399,275.52722,-44.498413,-0.26352498,0.17003638,-0.7948909,-0.3931987
-0.58538234,8.517597,7.5737576,9.7355995,-51.179,17.1654,275.02554,-45.647453,-0.12045218,0.5567567,0.32684955,-0.063967645
-1.4536545,10.143634,7.4693108,9.406199,-49.5686,17.5924,272.83075,-46.363647,-0.74622947,-0.123188935,0.11511179,0.09564338
0.5486463,8.991874,6.562058,8.6376,-48.8122,17.507,270.73447,-45.932262,-0.9099867,-0.5450157,-0.4249577,0.18585758
-0.22565351,7.246351,8.625561,9.174399,-48.128998,14.8962,270.2084,-44.48677,0.3201753,-0.020967266,0.16553982,-0.048479516
-0.5469254,6.4710035,6.0770826,8.6254,-47.043198,14.1398,268.11655,-44.267883,0.38507187,-0.26916042,-0.18532465,0.42843837
0.9225907,5.679795,7.1834283,7.5274,-47.2262,11.6998,267.18942,-42.91278,1.9666746,-0.5217169,-0.48183078,-0.20869008
-0.44187984,4.869507,5.277344,7.6738,-46.3234,10.2602,266.0387,-41.65317,1.0705765,-0.21282025,0.83809114,0.12705263
-0.46918872,5.954155,4.4749875,6.4049997,-45.75,8.8084,262.22238,-41.622692,-0.07605588,0.24313036,0.5433836,0.4403126
-0.61299044,7.269021,5.3862057,5.7706,-44.2128,8.356999,260.5588,-43.039192,0.5006968,0.51149136,-0.64294064,0.019135337
0.77250415,7.9445596,9.176826,5.8926,-43.8224,7.2956,261.2347,-44.754787,1.7347333,0.23815084,-0.3902676,-0.22394505
1.268478,9.656115,7.2488947,6.7465997,-42.4926,6.5513997,259.18884,-45.415573,1.0579641,-0.104902945,0.3793926,0.2055758
2.0161424,9.017162,7.4236712,6.832,-42.944,4.6848,257.77362,-45.03388,0.9561513,-0.3008528,-0.5665825,-0.6620593
0.6799533,6.601188,10.307936,8.845,-42.8708,1.1834,259.97235,-43.249454,0.75244373,-0.62505436,-0.8861876,-0.81304365
1.6827497,4.939238,9.33387,10.4432,-43.0294,-1.4518,261.78873,-42.350014,1.3917041,0.007527565,-0.5866338,-0.32381853
1.5658079,4.594398,6.6249056,10.6505995,-42.8952,-2.5132,261.04532,-38.732025,3.4506207,-0.2901943,0.20799062,-0.05868836
0.17500117,4.790573,4.951359,11.4436,-43.2002,-3.7819998,259.2574,-37.762447,2.4788632,-0.21010566,0.24401301,-0.060703482
-0.4225766,5.6699185,4.463241,11.6388,-43.627197,-5.1605997,258.60504,-38.103188,2.6799273,0.3730308,-0.61154807,-0.010292113
-0.9958383,7.024139,5.901782,10.321199,-44.078598,-5.7584,259.11197,-39.618656,4.364943,0.40882006,-0.7937917,-0.19601646
-1.1299136,8.206426,6.8588643,11.138599,-43.6028,-6.039,259.21988,-43.070232,2.530735,0.4810647,0.11762653,-0.1996137
-2.1107132,9.6806555,7.133599,11.5168,-44.2128,-6.0512,258.18378,-43.863094,1.3054695,-0.13126607,0.450638,-0.12875134
-1.4000094,8.565705,6.4873886,11.8218,-44.1274,-6.344,255.11038,-43.763878,-0.33062395,0.15779574,0.9527199,0.34391978
-0.85091424,7.900417,8.53069,10.5774,-45.0668,-6.2708,251.63365,-44.33902,0.27660492,0.28832906,-0.14565505,0.62831855
0.1479916,6.6101665,7.1150436,9.1256,-46.335598,-5.5144,249.39249,-44.82661,1.4801077,-0.17643146,-0.052826185,0.55485815
1.5195699,5.865869,7.8070426,7.5762,-47.665398,-7.503,247.4375,-43.102768,3.0527508,-0.16988648,0.16409093,-0.02243281
0.10519524,4.457031,4.5357404,7.9666,-47.9094,-7.4054,245.11618,-42.376392,1.7812022,0.089831166,1.2603343,0.21353637
0.19789574,5.710695,3.2496052,5.7218,-48.922,-6.161,240.23663,-43.049183,0.137666,0.4000934,0.8903011,0.7284418
0.032172084,7.0602016,4.20347,4.6359997,-48.7756,-5.7706,236.66571,-44.332775,0.47050795,0.41208422,-0.08160413,0.6353631
1.645864,8.312893,6.9969797,2.379,-50.1664,-4.9288,235.30933,-46.652237,3.4576974,0.05765582,-0.38667035,0.43096974
1.7476925,9.339781,7.932888,0.56119996,-50.6666,-6.0146,234.04773,-46.229424,4.5031834,-0.36923373,-0.2198482,0.08085471
3.1260045,9.260697,8.607604,0.53679997,-51.362,-7.4054,233.63301,-45.3828,5.3919573,-0.19959705,-0.38293988,-0.1362456
1.133879,7.1452703,9.060258,1.6104,-52.0086,-8.6742,234.6826,-44.63556,4.930309,-0.30914643,-0.38472185,-0.9621294
0.8821137,5.440599,8.133178,3.965,-52.9968,-9.2842,235.91287,-41.4018,3.798119,-0.3357927,-0.29998678,-0.48666042
1.472434,4.409521,7.558794,5.551,-53.5458,-10.845799,236.37604,-36.51857,5.950766,-0.25635356,-0.102171704,-0.5004165
0.5540332,3.9967456,4.816236,7.137,-53.7898,-11.7242,236.33792,-36.155888,5.2624397,-0.037887633,0.07465945,-0.040335756
0.065466456,5.8698344,4.1161566,6.8076,-54.7048,-11.9438,235.0617,-36.02105,5.234408,-0.05860509,-0.1910536,0.036438745
-0.57124156,7.061773,5.9140525,7.2468,-56.156597,-12.7612,235.00229,-36.176903,5.789441,0.10528599,-0.39286563,-0.34198794
-1.6737715,7.9083476,7.042021,8.2838,-57.547398,-13.2736,235.58304,-38.692364,3.746902,0.276205,0.27787042,-0.26349807
-0.8932617,9.606211,7.353042,8.4302,-59.0602,-13.4078,233.94186,-39.207466,2.5494852,-0.08445195,0.3902676,0.14850287
-0.86116445,9.344569,5.9841576,8.662,-60.658398,-13.4444,231.35896,-39.47362,1.5958656,0.094277754,0.73368776,0.29855454
-1.5593735,9.306262,8.792706,8.479,-62.6226,-15.0426,229.22974,-39.312866,1.5843387,-0.01040869,-0.056023736,0.3753457
-1.5648353,7.5722613,6.2259717,8.1496,-65.6848,-14.0422,227.48094,-39.677464,1.4700717,-0.12680283,0.42617342,0.40042648
0.5862053,6.2806644,6.5241246,7.0028,-67.039,-15.0426,225.22961,-42.015816,-0.49734643,0.06691539,-0.39656278,0.32228637
0.5636849,4.978518,7.065963,7.137,-68.625,-14.884,225.2714,-42.379337,1.4325362,0.2156181,-0.27219144,0.09043071
0.33047464,4.864943,4.6433296,8.1862,-69.6254,-13.054,223.1972,-43.36102,0.77206266,0.4359326,1.0987914,0.36860088
0.007182605,6.4599304,3.6281135,8.54,-70.5526,-10.9312,219.55183,-45.046844,-0.24501243,0.49482083,0.28659704,0.386737
0.8252514,7.4206038,7.594707,10.5652,-71.8946,-7.9421997,218.94728,-46.362797,1.0086976,0.24797665,-0.6168107,0.0435
0.45908818,7.965584,7.346159,13.3224,-72.614395,-5.612,218.62646,-46.793514,0.87617916,-0.12900114,0.55414206,-0.21871573
-0.059630588,8.792182,7.6413193,18.0804,-73.236595,-3.0865998,218.22325,-45.961945,-0.21708441,-0.01871899,-0.2965894,-0.042850498
1.3973908,8.702325,9.317784,19.9226,-74.298,0.1952,219.92244,-45.615925,0.9825016,-0.17266768,-0.7202481,-0.41334993
0.94683194,6.4321723,7.3513217,23.680199,-74.847,3.2208,221.81747,-44.987087,0.21803552,-0.46184608,0.3925825,-0.65085125
0.969951,5.649942,8.249372,25.7908,-74.5786,4.6848,222.56181,-41.25673,0.73367196,-0.8940316,-0.027395673,-0.61649424
0.19205987,4.832771,6.4419737,27.267,-75.090996,5.3557997,223.43498,-38.620575,0.28574553,-0.01543817,0.10916635,-0.015771247
-0.11836334,5.306449,3.9451954,26.7058,-75.9572,9.5282,222.84532,-39.402355,0.4811532,0.5189856,-0.11967496,0.31712365
-0.40761283,6.6983776,3.7692215,24.827,-75.152,14.408199,222.95801,-41.106472,1.9171426,0.5223331,-0.6441397,0.19230264
-0.8920646,8.502259,6.5939307,24.4244,-74.8714,18.2146,223.84537,-43.815365,2.121024,0.30876338,0.1580289,-0.2469108
-1.341576,9.220744,6.983063,23.6558,-71.4554,22.6798,223.51945,-44.61438,1.0468804,0.11626091,0.4200115,0.07214472
-0.49088618,10.246735,7.251139,21.0938,-70.3208,26.108,221.84673,-44.995953,0.16054039,0.315375,1.0899148,0.18753962
-0.942268,9.560197,8.18398,18.190199,-67.770996,29.475199,219.84438,-45.305283,-0.77531666,-0.05259303,-0.21700038,0.37769392
-0.85413146,7.4449196,7.00925,16.897,-65.1114,30.597599,219.21198,-45.75704,0.41227034,0.02319889,0.12656967,0.2935584
0.36317047,6.5601873,7.8484178,15.6282,-62.159,30.2804,217.59875,-44.859623,0.7007248,-0.3416382,-0.111514546,0.13812749
0.38165072,5.158981,7.0209217,15.9332,-59.7068,29.548399,216.96632,-43.57525,1.3908023,0.04764682,0.23953311,0.07281087
-0.2112883,4.834791,4.2680387,14.444799,-56.8764,30.5854,214.68523,-44.086918,0.33291295,0.3935651,1.0423845,0.3766114
-0.523582,5.902156,3.221997,11.6144,-52.826,33.891598,211.40155,-46.13319,0.023751128,0.99690276,-0.09222932,0.62905127
0.5456535,7.4958715,4.407875,11.2484,-46.7016,37.234398,210.98955,-49.324223,2.393911,0.57357717,-0.5827368,0.23407063
1.8926913,8.642769,7.568221,11.5168,-42.7122,38.405598,211.15466,-49.846485,2.918167,-0.35799235,0.47028962,-0.3733972
0.31251815,9.457471,7.3992805,12.346399,-39.6012,37.7956,210.2508,-48.454712,0.65300494,-0.3929489,0.30371726,-0.34088877
1.3836989,9.392303,5.929914,12.5904,-36.2706,36.697598,210.20773,-48.069904,0.90633297,-0.4525199,-1.0133401,-0.12102392
1.0229226,7.6824694,8.439187,15.006,-33.3914,33.7452,212.42215,-46.393806,2.0122519,-0.57469296,-0.5213172,-0.33514318
2.157924,6.913407,8.208296,16.5432,-30.378,30.9026,213.44534,-45.005737,2.7378047,-0.4192454,-0.71653426,-0.09332848
1.4999673,5.5701103,6.301913,18.666,-27.5842,28.243,214.7089,-43.189907,5.0141096,-0.18455857,-0.017769717,-0.26151627
0.6919243,5.565172,3.7574751,19.1174,-24.0462,25.8884,215.0687,-43.167324,4.4349103,0.12480436,-0.051876914,-0.2090398
-0.32621,6.143671,3.9493854,20.1422,-18.970999,23.6558,216.57832,-43.76585,4.4566436,0.08456853,-0.67896307,-0.5134066
-0.58553195,7.474099,6.3846626,21.7404,-14.347199,20.8498,219.1896,-44.988945,3.9514794,0.3812412,-0.5514274,-0.5122908
-1.1855787,9.187749,6.6847606,21.9478,-9.5892,18.421999,220.95825,-47.27585,2.435226,0.6116813,-0.079788856,-0.44734055
-1.759439,10.726473,6.3121634,22.2528,-4.9898,14.6278,221.90918,-48.968426,1.9522119,0.32531738,-0.14913572,-0.20650841
-0.9105448,10.597784,5.9028296,20.923,-1.1467999,11.407,221.66316,-49.43221,0.6605639,-0.15511447,0.87001663,-0.009559342
-1.0318261,9.001301,9.768493,20.3984,0.26839998,6.954,222.09184,-48.62119,0.4274611,0.12612002,0.0934284,0.21058862
-1.1949311,7.355736,5.583952,21.2524,1.0735999,1.5128,221.11029,-49.351162,-1.1571809,0.17516577,0.44722396,0.64685434
0.21974282,6.229788,6.358476,20.642399,0.3782,-4.0504,221.73674,-49.851524,0.08916303,0.16757159,-0.25450498,0.105619065
0.11656769,5.216741,5.2149453,20.7034,1.4518,-8.7962,222.58293,-49.946636,-0.4944452,-0.018086141,0.98571134,0.05642343
-0.035314474,5.738677,3.6929064,20.996199,1.0126,-12.017,221.8168,-50.684673,-2.3255074,0.5281453,0.7574362,0.017236792
-0.51954174,6.604106,4.2102036,21.886799,0.305,-15.9332,222.07281,-52.122456,-3.4597313,0.30281794,0.38372263,-0.2287747
-1.0118495,7.239542,5.59914,22.4114,0.46359998,-21.4842,223.68239,-52.757935,-4.6099005,0.13021688,0.15569736,-0.1426407
-0.23096564,9.111584,4.530204,23.9974,-0.1464,-25.973799,224.60115,-53.72729,-4.8169293,-0.008576761,0.3984613,0.092046134
-0.15180735,10.959908,6.469133,24.034,-1.9764,-31.658998,225.75253,-53.27485,-4.5580196,-0.29457426,-0.5499952,0.067148544
-0.16033669,9.202937,7.199963,23.7778,-3.7819998,-36.770798,229.5093,-52.103535,-3.4172003,-0.5928457,-0.72492784,-0.38080817
-1.2671312,7.379678,8.245406,23.5704,-4.575,-41.175,232.759,-50.068626,-3.7585423,-0.39228272,0.010924961,-0.0043133614
1.2877064,6.917148,6.443395,23.1556,-7.7348,-45.0424,234.73816,-49.061764,-0.14211589,0.04516539,-0.68229383,0.28136772
0.76292735,5.7726445,5.653159,22.045399,-10.613999,-47.8362,236.77121,-48.619095,1.4029552,-0.2767546,-0.0021983155,0.015771247
-0.14634559,5.481375,3.5061588,23.2166,-13.785999,-51.606,237.767,-48.008904,1.0508647,-0.053325802,0.24409628,0.20204517
-0.27593175,6.7615247,3.0763247,23.6192,-16.5798,-54.3998,239.39197,-48.135258,1.6952816,-0.026030052,-0.47626838,0.032175343
-0.6833201,7.7311764,6.168137,22.8384,-18.848999,-57.6694,241.98691,-48.112564,2.138559,-0.07194487,-0.3730808,-0.26045042
-1.1052234,9.535058,6.3396215,22.740799,-21.5696,-61.817398,244.35545,-48.429768,1.6144844,0.067781396,0.13556279,-0.17041941
-1.1257237,10.928932,8.106916,23.8266,-24.2536,-63.147198,246.21423,-48.202015,0.962605,-0.2522567,0.12104058,-0.16962002
-1.2550106,10.45084,5.9595423,25.705399,-27.376799,-64.8674,246.17401,-47.9524,-0.42120957,0.038570445,1.3284154,0.028294984
-1.9768624,9.326239,9.13156,29.3776,-32.6106,-64.5868,244.52849,-47.898663,-1.192591,0.35123086,-0.36875075,0.40600553
-1.7143233,7.3885813,5.82008,29.865599,-40.016,-62.3176,243.51915,-49.899265,-2.1883748,0.43909687,0.1608101,0.70126265
-0.49881697,6.5964746,7.106739,29.4264,-45.566998,-61.183,242.47237,-50.062923,-1.6124003,0.23881699,-0.03399062,0.36215582
0.14073417,5.3107133,5.7127895,30.1584,-51.630398,-57.4254,241.34161,-50.873863,-0.98853964,0.34310374,0.53180915,0.5165542
0.02685995,5.8098297,5.026028,31.036798,-56.620197,-53.728798,238.31847,-51.82174,-1.2366027,0.25545424,0.93143624,0.5226828
0.22662616,6.452673,5.032462,31.0246,-61.244,-47.4092,234.89558,-53.39408,-1.9463634,0.6788964,0.80025345,0.29678923
0.23672669,6.6827407,3.402759,30.5732,-66.734,-40.321,232.90521,-55.934025,-2.565282,0.68104476,0.5555909,0.14420617
0.5835118,8.394595,2.8126633,29.0238,-69.906,-36.8928,231.25821,-56.763454,-3.2234147,-0.34776685,0.799071,0.03194219
0.68391865,10.684574,5.6392426,28.7188,-70.1744,-36.7098,229.34155,-57.236828,-3.3741028,-1.0294112,0.16938686,-0.084035605
-0.1937807,9.100735,7.674015,26.7302,-70.089,-38.3568,230.90724,-54.30489,-3.4576309,-0.8436868,-1.0609204,-0.6071681
0.5434838,7.7601314,9.497574,24.2658,-69.661995,-41.284798,234.27202,-51.85827,-2.457644,-0.2437299,-0.5682312,0.096159644
1.6983868,7.765668,7.5865517,21.7404,-70.1012,-40.9066,234.98245,-51.469917,-1.1840292,-0.024664434,-0.42265946,0.09502718
1.2131121,5.936872,5.3163996,20.410599,-70.821,-39.8452,235.83572,-50.543713,0.5858167,-0.16370788,-0.0016820444,-0.31992152
0.6912509,5.9668746,4.167258,19.52,-70.5404,-38.869198,236.12051,-50.064117,-0.03660128,-0.15066788,0.17406662,-0.33269507
-0.4778677,6.6725655,3.3768718,20.13,-70.3696,-37.8932,236.70366,-49.61152,-1.6278752,-0.17240122,-0.07702431,-0.5411187
-1.3759178,7.7515273,5.631312,20.1422,-69.9914,-37.4906,238.76859,-49.580257,-2.3928,0.2486428,-0.68217725,-0.3362923
-1.5784523,9.180118,5.906271,18.617199,-70.4672,-35.2702,240.49194,-50.944496,-2.3099415,0.30111927,-0.19936389,-0.11724349
-1.7129017,10.40939,7.0972366,18.5074,-70.576996,-33.9038,240.81946,-51.12825,-2.6521308,-0.24013266,0.117526606,-0.24248086
-1.8383728,10.059089,5.8284597,18.117,-70.333,-34.0014,239.38658,-50.740837,-3.95036,-0.16175938,0.92052794,0.37514585
-1.8291701,9.67669,9.108216,17.2386,-69.8938,-33.4036,238.10509,-50.16666,-3.6791708,0.06967994,-0.37792706,0.4840624
-1.7301848,7.6263556,6.0928693,14.798599,-70.5282,-31.476,237.06621,-51.36458,-2.6385362,0.36275536,0.31169447,0.8304636
0.004638766,7.242535,7.4405804,11.285,-70.9552,-29.8412,235.3105,-51.64181,-1.4685899,-0.117176875,-0.34983194,0.30992916
0.19752164,4.9310827,6.843077,11.1874,-70.9186,-29.157999,235.42639,-48.366753,-0.59981424,0.15283288,0.74644464,-0.04636447
-0.2629881,5.118878,3.3256958,12.4684,-71.065,-28.182,231.58893,-49.001743,-3.518686,0.05305934,2.000717,0.26951015
-1.4333038,6.6434608,3.327267,12.6636,-70.9796,-25.156399,227.08583,-49.924057,-5.8676305,0.48679364,0.34383652,0.4277722
-0.75492173,7.4748473,4.3944826,10.797,-72.407,-22.081999,227.27263,-51.892757,-3.9412796,0.7062588,-1.0536592,0.5175534
0.6318448,8.756867,6.3974566,7.8933997,-72.614395,-20.2398,228.84056,-53.190437,-1.2324831,0.19548354,-0.6390436,0.20347741
0.3752163,9.254562,6.242058,7.7103996,-72.041,-19.3492,229.1907,-53.057034,-1.6383979,-0.3092963,0.4301537,-0.57352716
0.26515785,9.1581955,5.9511623,9.8331995,-71.3822,-20.496,228.45078,-52.079548,-3.7766192,-0.46146303,0.29410797,-0.48702678
-0.57356095,8.372523,7.0895305,11.5778,-70.4672,-21.4476,227.93536,-50.800144,-5.2814517,-0.06841424,-0.40770423,-0.69018775
-0.09255086,7.067908,7.8273187,13.8348,-68.8446,-21.3134,228.91246,-49.93739,-5.736494,-0.44622472,-0.80653197,-0.54508233
0.34528878,6.0460324,8.055965,14.03,-66.8072,-23.2166,230.21439,-48.366802,-5.6115694,-0.2254106,-0.013273162,-0.3895015
-0.3592799,5.9365726,4.4630165,15.0426,-66.4778,-24.4732,228.49165,-46.381,-5.9013085,-0.27705437,0.47566882,-0.0028977795
-1.9514989,5.5101805,3.0220811,14.9938,-65.3066,-24.156,227.23434,-45.835106,-6.589078,-0.09282886,-0.14748698,-0.21085508
-2.7238533,6.306477,4.0364,14.6644,-63.7572,-24.802599,227.17104,-45.093884,-6.4307566,-0.32728255,-0.5522768,-0.15041807
-2.656217,8.1580925,5.8916817,13.8714,-63.6718,-25.6688,227.39085,-46.326225,-6.975994,0.16840428,-0.4336677,-0.33564278
-3.8597524,8.668806,5.8132715,14.8474,-61.6466,-25.1442,226.9556,-46.690548,-7.769216,-0.20794065,0.62415504,0.11711026
-3.2023196,9.80478,8.337808,13.115,-60.207,-25.1076,223.24681,-46.148643,-8.103964,-0.163125,0.542884,0.64457273
-3.7301662,9.025766,6.599542,11.2606,-59.1212,-24.802599,218.3818,-46.458054,-8.576974,-0.254455,1.2118214,1.1012228
-2.9620016,7.549217,8.176273,7.1126,-58.194,-25.4614,212.43619,-46.81426,-7.1416554,0.5510111,0.4974688,1.2522737
-3.1566052,6.4814034,5.030143,3.9162,-58.1208,-24.5952,207.81438,-48.425865,-8.092115,-0.13821076,0.8545452,1.1906376
-1.6899323,6.0101943,9.734225,2.013,-56.1322,-27.2792,202.43378,-46.500423,-7.6576433,-0.5220833,0.6682046,0.90573925
-1.7371429,4.8892593,5.532626,1.5494,-55.2538,-28.621199,196.36882,-45.67003,-8.533187,-0.10540257,1.9368825,1.2048767
-1.5976807,5.9254994,4.9771714,0.4026,-54.2168,-29.768,187.71025,-46.443825,-9.439391,0.032724924,1.5106924,1.575143
-0.49627313,7.4686375,5.6129065,-1.8787999,-53.7044,-29.9632,181.08794,-47.995975,-8.611924,0.119991384,0.8444529,0.95929825
-1.7773955,6.9997478,7.83914,-2.8792,-53.960598,-30.3536,176.69017,-48.64016,-8.812537,0.083436064,0.9837295,0.48053178
-1.2274773,7.6495495,6.8213053,-1.1589999,-53.3018,-31.1222,171.28592,-49.80941,-9.734788,0.13571267,1.2295911,0.71751684
-0.4238485,8.240244,6.519112,-1.0857999,-53.924,-31.3296,167.015,-50.648865,-10.196783,0.03625555,0.8491826,0.5257305
0.38097733,8.2894745,5.802797,0.0244,-53.924,-32.1958,162.49907,-51.76405,-9.071865,-0.114462286,0.4955203,0.39166653
-0.7695862,7.6465564,7.8624086,-0.366,-53.655598,-33.367,160.31458,-51.11476,-9.027972,-0.3787098,0.28922838,0.02742898
-0.35269585,6.2282166,8.455273,0.1586,-53.2408,-34.3308,158.73097,-49.978207,-8.724608,-0.21608442,-0.023248851,0.6540155
0.2442834,6.0779057,6.1585603,-1.342,-53.350597,-35.209198,156.29095,-47.507484,-4.7966146,0.17603177,0.49512058,0.9958036
-0.45085812,6.4944963,4.1813235,-2.6352,-53.2042,-34.7212,152.86603,-47.492966,-4.305962,-0.42294258,0.6806118,0.59910756
-1.0753707,6.415413,4.2904096,-3.0012,-52.5942,-36.075397,151.01439,-46.79595,-4.265203,-0.04564835,0.20462653,0.39055073
-1.0883892,7.2099886,4.8698063,-4.3066,-52.5088,-35.0994,149.87434,-46.824013,-3.7090056,-0.03189223,0.112663664,0.29102698
-1.718139,8.046089,5.573552,-4.6238,-53.131,-36.380398,148.02649,-49.296608,-5.73974,0.08974789,0.6212406,0.4367986
-1.714398,9.627384,6.1439705,-4.6238,-53.191998,-35.8924,144.9404,-50.079834,-5.94046,-0.06979652,0.42743912,0.5531595
-1.558326,9.756073,8.655562,-5.3069997,-52.6674,-35.5874,142.087,-49.774902,-5.495212,-0.18987116,0.953969,0.5400029
-1.54845,9.081881,6.9102645,-4.0138,-52.826,-36.173,137.7192,-49.42581,-6.6077976,-0.6132301,1.1685046,0.6436401
-1.582268,6.1029696,7.6614456,-5.1362,-51.1912,-36.3316,134.20126,-49.136387,-5.6910057,0.61914223,0.7132368,1.1251045
-1.1337293,7.121553,4.7655087,-6.4537997,-51.4596,-35.1726,129.63722,-49.092968,-5.190229,-0.46983996,1.0031646,1.3797427
0.02558803,6.522853,6.667702,-7.1858,-49.8736,-36.4048,126.20604,-47.935253,-4.0222116,-0.14993511,0.4161811,0.44354343
-0.5657798,5.410821,5.041815,-6.9662,-49.349,-36.8806,123.94894,-47.32272,-4.961372,-0.4468909,1.1911539,0.16255876
-1.0564415,5.9780226,4.854169,-4.1967998,-47.7874,-38.2104,120.96194,-46.453434,-7.0544653,-0.18437538,0.7813013,0.15789567
-1.7182138,7.268572,6.372093,-4.3066,-47.897198,-36.9416,119.965706,-46.767517,-7.165491,0.3602406,-0.31763992,0.23944984
-0.9658359,8.363396,7.826271,-5.124,-48.4584,-36.661,120.22023,-47.74812,-6.3918643,0.22760892,0.18434207,-0.062035795
-1.3517513,8.874707,7.339949,-2.6962,-47.7142,-36.538998,119.363396,-48.495926,-7.6392384,0.08763285,0.36019066,-0.05557408
-0.38135144,9.308058,7.973739,-2.0983999,-47.8118,-37.2222,119.04131,-48.656353,-7.6772995,0.048379593,-0.11038208,0.1851248
-0.05431845,7.6815715,9.576732,-1.6714,-47.1042,-37.6004,119.45328,-48.331055,-7.229405,-0.09379479,-0.36703542,-0.30849692
-0.5817162,5.26455,8.172607,-1.1589999,-46.7138,-37.2954,120.76379,-48.148495,-6.9770994,0.3981449,-0.31930533,-0.20317765
-0.14686932,4.6347256,5.790826,-1.1467999,-46.5308,-37.1978,122.268166,-46.289066,-6.0126657,-0.2130201,-0.63979304,-0.13463017
0.37424365,4.8309755,5.1215715,-0.90279996,-45.493797,-38.0518,123.53903,-45.034317,-5.4789553,-0.454152,0.23783441,-0.15867841
0.24076691,6.1373115,4.717999,0.43919998,-44.481197,-39.967197,123.20073,-44.256428,-6.1174207,-0.44177812,0.59424466,0.007727412
-0.48647186,6.577695,5.2557964,1.281,-43.5296,-41.211597,122.075035,-43.2275,-7.572622,0.094660796,0.11289682,-0.2025448
-1.427842,7.4413285,5.9779477,2.5742,-43.798,-42.2852,122.08894,-43.947838,-8.175546,0.16095999,0.09894085,0.022699272
-0.77774143,8.558224,7.180136,3.1842,-43.5052,-42.3828,121.24896,-44.990974,-7.9200735,0.3271493,-0.15616366,0.08451857
-1.417143,8.690129,7.032818,3.2696,-44.0664,-42.883,120.27432,-45.604046,-7.4813023,-0.2202812,0.13532963,0.096192956
-2.0997896,8.302493,6.7360864,4.3188,-42.8952,-45.1888,116.80393,-44.324482,-8.394892,-0.78846246,0.54281735,0.62693626
-1.9191772,7.944485,8.511163,4.6604,-42.0412,-47.6044,114.42352,-42.848354,-7.3823457,-0.30603215,-0.3139261,0.49252257
-2.2824972,6.547468,7.6574802,4.3919997,-41.6264,-49.5442,112.62452,-41.939865,-6.406029,-0.52912784,-0.5356395,0.26055035
0.8027309,5.2197337,8.592939,2.8548,-40.1868,-50.9716,111.63478,-39.2948,-4.017657,-0.7817676,-0.5215836,-0.033973966
-0.119335994,3.8952165,6.513351,3.6966,-39.4426,-54.363197,113.15722,-35.21023,-2.7836993,-0.44039586,1.080089,-0.0573727
-0.9873837,4.489652,5.363012,7.3199997,-38.954597,-55.0342,112.44036,-34.80074,-5.197106,0.041068528,1.1006066,0.612031
-0.822109,5.835717,6.2364464,9.8454,-40.503998,-56.1322,110.35511,-36.01523,-6.2247124,0.53105974,0.35546094,0.3128769
-0.76337624,6.1228714,7.577349,11.1751995,-42.1754,-55.388,111.039536,-37.54852,-5.9828515,0.3377412,-0.6739669,-0.33327794
-0.61134446,6.607847,8.509217,11.3826,-44.4568,-56.7056,113.41202,-38.1677,-5.200309,0.11426244,-0.080838054,-0.18182734
0.66858083,7.816919,8.503756,12.870999,-45.0058,-58.084198,113.50227,-37.73111,-5.0794578,-0.4427607,0.21073851,0.50940967
0.7627029,7.742549,9.799243,12.968599,-44.9936,-59.6336,113.17654,-36.08023,-4.827967,-0.6011727,-0.40032655,-0.33169582
1.0623522,5.644031,10.518551,13.005199,-44.347,-62.451797,115.58171,-34.397724,-4.105561,-0.3975287,-0.87104917,-0.67591536
1.1528081,3.9671922,9.623269,12.0414,-43.8712,-64.294,118.903,-32.813408,-3.0485091,-0.45170385,-0.34678426,-0.7125373
0.81193364,3.8241386,6.3369284,14.0422,-43.700397,-64.477,119.840004,-29.69327,-2.8601313,-0.41638094,0.60876685,-0.0062452145
0.35838208,4.513893,5.6167226,15.0548,-43.3954,-66.124,118.83581,-28.644945,-3.568725,-0.13664529,0.04564835,0.15664662
-1.2134862,5.334805,5.8409543,15.9576,-45.6646,-66.1728,118.760506,-29.287111,-3.8288946,0.5694803,-0.05489127,-0.34460258
-1.885359,6.2025537,7.175946,16.5432,-48.4096,-66.526596,120.613884,-31.174631,-3.7297232,0.33952317,-0.5684311,-0.50348085
-2.0824318,6.927847,8.634089,17.263,-50.508,-66.5754,121.95094,-33.69347,-5.215073,0.34884936,0.31470883,-0.25124082
-2.4913914,7.688829,8.402526,19.361399,-52.8504,-65.5506,121.25566,-34.54239,-6.498575,0.076957695,0.54951227,0.22512749
-2.1267245,7.2893715,7.400178,21.2402,-55.4978,-63.6596,118.95819,-35.25034,-7.643129,0.17215142,0.65038496,0.6740835
-1.2873323,6.3864584,9.555634,20.605799,-58.718597,-63.6352,117.57424,-35.922092,-6.028343,0.3492657,-0.4511043,0.3320955
-1.969156,5.662287,7.192257,19.0686,-61.6588,-60.975597,117.032745,-36.742886,-5.387852,-0.08120444,0.038753636,0.4885756
0.607379,5.0505686,8.658406,17.0556,-62.0492,-61.4758,116.34732,-34.79562,-3.1957774,-0.5544418,-0.38180742,0.027312404
0.05746084,3.864466,8.115371,17.177599,-61.597797,-61.4636,117.17616,-31.80367,-1.4620718,-0.20294449,0.21786638,-0.15143396
-0.22872108,3.8513727,4.71957,18.226799,-62.598198,-59.4384,115.63108,-32.59112,-2.5942605,0.7291579,0.71488553,0.7829001
0.5403414,5.364658,3.3063178,17.2996,-67.8076,-54.985397,112.55241,-35.407284,-2.1834688,0.83869064,-0.15541424,0.70535946
0.40447044,6.31972,7.1220016,13.5054,-69.954796,-52.020798,113.831825,-37.2169,0.579384,0.07867305,-1.5611537,-0.3552611
0.8928128,6.3252563,10.434904,13.359,-70.894196,-51.2644,117.33079,-37.24883,2.6927636,0.24026589,-0.11822607,-0.4885423
0.64793086,8.073323,8.003367,14.8962,-72.2118,-49.141598,116.82086,-38.07133,1.8641235,-0.098174766,0.13045004,0.6370119
2.1317372,8.106393,8.688633,13.4078,-71.9068,-48.8488,115.651215,-36.377693,3.065439,-1.1973158,-0.6445061,-0.081304364
2.6819549,6.4316487,11.126229,12.749,-68.9178,-51.9964,118.58771,-33.051365,4.594414,-0.7428141,-0.79910433,-0.74807674
2.6324997,4.9548006,9.141062,13.847,-66.3558,-51.545,120.48986,-31.336271,3.5042639,-0.73383766,0.92530763,-0.8467678
0.32216978,3.4818428,7.635184,19.8006,-62.6592,-52.2282,121.21678,-27.960997,0.81367105,-0.7599676,1.0703131,-0.712454
-0.33114803,3.50571,5.7395,23.289799,-60.194798,-50.9106,121.34374,-26.983572,-2.0479841,0.15353234,0.37174848,-0.18943816
-0.16841713,4.408249,5.0005145,25.071,-60.426598,-48.5682,121.80103,-27.533224,-3.217351,-0.085218035,0.25124082,-0.71465236
-2.5416696,4.6880713,7.457115,28.852999,-58.242798,-47.4458,124.432076,-26.29433,-6.017246,-0.3508978,0.518969,-1.2130538
-4.707898,5.9314103,8.567875,32.9156,-56.376198,-46.1282,125.99518,-27.045662,-11.774573,0.15393203,0.41508192,-0.29870445
-3.496208,7.3211694,9.25516,31.6834,-56.851997,-42.334,125.344986,-28.051878,-12.10406,0.17101894,-0.37672797,0.44620806
-3.1248074,6.52188,9.596484,29.9632,-57.34,-40.113598,124.53883,-28.942635,-10.512912,0.38497168,0.5527431,0.66953695
-2.269329,6.567071,10.5849905,27.645199,-57.4376,-36.905,122.33898,-29.526339,-10.4387455,-0.23445368,-0.040185872,0.9163145
-3.3503113,4.537835,7.5035777,24.0462,-57.388798,-34.4772,123.285194,-30.411846,-10.804903,0.32620004,0.3608568,0.9034577
-0.47210664,5.177611,9.057639,20.447199,-57.3034,-31.658998,122.92982,-30.702005,-9.066836,-0.26787806,-0.58998126,0.9080542
-0.63281745,3.8324435,8.994043,15.518399,-55.6686,-31.6224,124.815414,-30.490128,-6.517294,0.3283484,-0.4912069,0.12292247
-0.7600842,3.863568,6.1311016,13.3712,-54.289997,-29.0726,126.651566,-31.11095,-5.8508754,0.41506526,0.6852416,0.67543244
-0.6072294,5.383587,5.590985,11.9804,-53.8508,-26.4252,125.80498,-32.643383,-6.674577,0.38189068,0.5817209,0.6740835
-0.075342536,5.8028717,7.104644,9.6258,-52.7406,-23.5826,126.82035,-34.662807,-5.908941,0.7171671,-0.48189738,0.22772549
0.9268553,6.1851954,7.854852,7.5884,-51.020397,-19.8494,128.82518,-36.90099,-2.0104117,0.34130514,-0.14660433,-0.09049732
0.09442133,6.538191,7.497293,8.2716,-48.763397,-19.8006,131.3834,-37.19879,-2.3383384,-0.40517285,0.19683251,-0.37591195
0.95027363,7.181034,8.785,7.7348,-47.3848,-20.056799,134.22505,-35.757095,-2.5528362,-0.4101024,-0.3977785,-0.14978522
-0.18068741,6.5340757,10.367118,6.6734,-44.090797,-20.6668,137.78955,-34.222866,-1.9723649,-0.5877163,-0.5958767,-1.0005499
-0.5912182,4.7815948,10.090812,7.5884,-41.6142,-21.6794,142.59961,-32.605625,-2.5361507,-0.29677257,-0.31702372,-0.478933
0.37790978,4.368221,9.017536,6.771,-39.649998,-22.313799,146.14005,-32.197063,-1.8932152,0.14448927,-0.27633825,-0.42525747
0.3453636,3.832668,6.2980223,6.4537997,-37.7346,-22.667599,148.18452,-32.122704,-2.4133248,-0.07074579,0.21068855,-0.26985988
-0.010699089,4.3350763,5.215993,6.1366,-35.5386,-23.0092,150.20557,-32.34101,-3.1241472,0.27528906,-0.062302258,-0.28518146
-0.65533787,5.0468273,5.708525,4.5994,-34.038,-21.899,152.10114,-32.940525,-3.0359473,0.36561984,-0.62307256,-0.5536924
-1.7696892,6.2671223,6.930915,3.8674,-32.3422,-21.0816,156.8826,-34.095734,-2.9354491,0.104803026,-0.2106719,-0.4568499
-2.4453778,7.4319763,8.078785,2.8669999,-30.219398,-22.021,158.85907,-36.283726,-5.1077027,0.14280723,-0.22947416,-0.37619504
-2.5471313,7.5234046,10.25242,0.5856,-27.5964,-22.545599,160.76028,-36.01481,-5.2172403,-0.22964069,-0.0112746935,-0.24442936
-2.7305121,7.2081933,7.6455092,0.2562,-25.8396,-24.156,159.55444,-35.659626,-6.8213277,-0.27795368,1.08745,0.39266577
-2.3754222,6.40217,10.703728,-0.24399999,-23.851,-26.2544,158.14662,-35.140068,-6.4387145,0.3156914,-0.5257138,0.2132699
-2.7004352,5.244424,7.8600893,-1.22,-23.4362,-27.7184,156.97923,-35.561333,-9.242955,0.1799954,-0.2760218,0.8949142
0.5542577,5.247342,8.610821,-3.2086,-23.241,-28.779799,154.45734,-36.234314,-6.510112,0.35607713,-0.5321922,0.7118212
0.6677578,4.056825,6.903531,-4.0992,-23.057999,-29.6582,152.48427,-36.19395,-2.7419791,0.34428617,0.30741444,0.4030245
1.3599814,4.5774145,4.3052235,-3.9894,-23.0458,-31.0246,148.19373,-38.055656,-3.4562895,1.0533096,0.79136026,0.5457318
0.26613048,5.820753,1.130138,-3.6599998,-24.7172,-31.1588,145.65971,-42.368095,-2.6505864,0.9651271,-1.7086574,-0.056323506
0.6937199,6.3379755,8.790985,-5.4778,-25.1808,-31.463799,148.64816,-42.995728,0.72024614,-0.4017255,-0.8193388,-0.43298486
0.4492869,6.9177465,10.316915,-4.88,-25.376,-34.0014,147.29276,-41.286316,-0.49138945,-0.39519715,0.7001968,-0.272308
0.36017773,8.605659,9.193734,-3.7819998,-25.546799,-36.2462,145.35202,-41.08302,-1.2465565,0.16532332,-0.32858154,-0.10758422
1.3078327,9.014244,9.0785885,-4.209,-26.4862,-36.9416,145.01273,-41.73122,-0.6814794,0.20844027,-0.56764835,-0.28381586
1.0145429,7.679028,8.637382,-3.9039998,-28.6334,-37.3808,145.45242,-43.04088,0.07640763,0.7010128,-0.47335392,-0.37694448
1.3734487,6.792425,6.5734305,-3.3184,-31.219799,-36.5634,144.84122,-44.7331,1.3550549,0.19551684,0.005962098,-0.32047108
0.49836805,5.3804445,6.09474,-3.8674,-32.6838,-36.7952,143.83357,-44.945435,0.74301726,0.10245482,-0.07036275,-0.14518875
0.7591116,5.5023994,4.1215434,-3.6111999,-33.7574,-37.0148,142.6454,-45.829445,1.1747493,0.4883924,-0.104436636,0.28746304
0.8932617,6.3872814,3.5864394,-3.233,-36.5756,-36.9782,140.87366,-47.29596,1.9897608,0.38508824,-0.29145998,-0.020167878
0.5924901,7.043816,4.6926355,-2.9889998,-37.9786,-36.8074,140.12427,-48.34042,2.3547513,0.21252048,-0.18615735,-0.20189528
-0.32733226,7.79365,5.084461,-2.3546,-39.4792,-37.332,139.20555,-48.971443,1.4676701,0.09642611,0.46389452,-0.35795903
-1.4731075,8.862138,6.0978823,-1.22,-40.8822,-37.7468,137.1495,-50.45643,-1.1565918,-0.12124043,0.23880035,-0.07196152
-1.1327567,9.303419,8.070854,-0.24399999,-41.6386,-37.9664,134.25137,-49.477757,-1.7448826,-0.40677163,0.967009,0.39213285
-1.0773159,8.392799,8.258948,1.3908,-43.065998,-39.3572,129.34651,-48.522545,-2.0547495,-0.10768415,-0.06288514,1.0709794
-0.18532617,7.2670007,6.6529627,-1.0857999,-45.14,-37.8444,126.934685,-50.350807,1.8152181,0.92832196,-0.28919506,1.3259339
1.6267104,7.863082,6.5181394,-3.965,-46.7748,-36.1364,125.58232,-51.127686,4.409083,-0.45433518,0.31207752,0.79407483
1.7548002,6.104541,7.3540897,-5.1605997,-46.9456,-36.5268,125.11596,-49.174072,5.0345592,-0.08688342,0.46384457,0.02759552
1.5592986,5.3631616,4.708721,-3.6111999,-47.8118,-35.868,124.51732,-48.29138,4.2738633,0.05624024,1.2060425,0.34110528
0.73823714,6.2499137,3.257087,-2.2447999,-48.739,-36.075397,122.28659,-48.16521,2.3854494,-0.049578674,1.3002037,0.30148563
-0.05199907,7.4244194,4.993856,-1.3786,-49.4344,-36.5756,120.74211,-48.005917,1.1846646,0.10320425,0.07833997,0.2469774
0.8861539,8.169091,6.4027686,-2.44,-50.874,-35.929,122.25821,-48.83339,2.5115595,0.27377355,-0.6803786,0.49811828
2.6365397,9.236232,8.227076,-3.4891999,-52.1306,-35.2824,124.297485,-49.13961,4.560336,-0.18262672,-0.09942381,-0.008726646
2.267309,9.481113,8.724621,-3.1964,-52.3746,-35.2824,125.047066,-48.52844,4.147697,0.039669603,0.50561255,0.07622492
1.8788497,8.145972,8.826,-3.233,-53.118797,-34.2332,126.77781,-49.17946,4.4125886,0.3136763,-0.7153185,-0.18579096
1.9411738,6.198663,7.4582376,-3.7575998,-53.619,-31.5126,129.85977,-50.037506,5.008309,0.281018,0.030926302,-0.2354196
1.7770214,5.905448,5.210905,-3.3794,-53.924,-31.036798,131.05394,-48.432648,5.5222774,-0.18624061,0.12856814,-0.074143186
1.5693992,5.6468744,4.027122,-2.4644,-53.558,-31.610199,132.43756,-47.766087,5.2250323,-0.2865471,-0.016304173,-0.31675726
1.1976994,6.1163626,3.5733461,-1.0613999,-53.619,-32.1958,134.6116,-46.84412,4.220221,-0.44935566,0.09364491,-0.5644841
0.069057755,6.96174,4.879009,0.0366,-53.7166,-33.367,137.68459,-45.968773,3.0873408,-0.06756489,-0.5505115,-0.66390795
-0.59278935,7.7134447,6.188338,1.5006,-54.4486,-33.3792,141.33064,-46.912254,2.3868108,0.08182064,-0.27408996,-0.49843472
-1.8444332,8.974291,5.4385037,3.4891999,-54.6804,-32.696,143.06645,-47.49222,0.25949255,-0.20715792,0.7528065,-0.31352642
-1.4042741,8.96666,7.8469214,4.7214,-53.7654,-33.2572,143.67917,-46.253883,-1.1529864,-0.54419965,-0.054458268,0.03980283
-1.2690766,8.158392,7.394118,4.6238,-53.887398,-33.6476,143.0899,-45.086887,-1.4343299,-0.5294942,0.7167174,0.62054116
-0.018330608,7.391499,9.739239,3.843,-53.338398,-34.513798,141.64801,-43.53116,-0.4939355,-6.828101E-4,0.48777622,0.9251577
0.13587095,7.8155723,5.8244944,2.2447999,-53.4848,-34.038,139.38304,-44.731045,0.010317001,-0.20998909,0.50459665,1.0495957
1.8726398,6.406809,6.9853077,0.87839997,-52.7406,-34.0258,138.33966,-45.16552,3.2405415,-0.17216806,-0.28093472,0.09267898
0.7107038,4.6632314,6.8236995,0.96379995,-53.0944,-34.0258,139.69545,-44.14447,3.5771966,-0.09401129,0.81774,0.049845137
-0.16609775,5.919589,3.8597524,1.9764,-52.569798,-33.3304,138.22499,-44.266373,1.5931505,0.123905055,0.8870369,0.27189165
-0.4724059,6.7951183,5.5158668,2.5498,-53.338398,-33.4524,138.45143,-44.726032,1.0176098,0.2139194,-0.20555915,0.010392036
0.3556886,7.5403137,7.7693343,2.8304,-53.728798,-32.573997,140.15323,-45.772404,1.9430182,0.38009208,-0.41809627,0.10285451
0.7318027,8.166023,7.2850323,3.1109998,-53.9484,-32.098198,141.83705,-46.74441,2.3446445,0.09251244,0.09715888,-0.10263801
1.3622259,7.264906,8.490064,2.4278,-53.655598,-32.573997,144.15329,-46.244408,2.2397957,-0.3935151,-0.5599209,-0.3273325
1.9290532,5.6910925,8.283414,3.6722,-52.8382,-34.7944,146.16026,-42.56647,4.3509374,-1.2517241,0.34183806,-0.45525113
0.33241993,4.59784,8.647632,5.0874,-50.068798,-37.3686,147.35556,-38.733994,2.4343004,-0.8299307,0.52136713,-0.37103236
0.6219687,6.042142,7.064092,5.1605997,-48.677998,-39.576797,148.67459,-35.500282,1.7208148,-0.57357717,-0.55500805,-0.20677488
-0.047734395,5.532626,7.683592,4.514,-47.5556,-41.297,153.01938,-34.055115,2.9446015,-0.5285949,-0.9183296,-0.91676414
-0.19767128,4.9509845,7.226524,5.5754,-46.1648,-42.6268,158.02582,-33.232296,3.4520137,0.029061064,-0.43007043,-0.6435235
-0.6812252,5.6146274,5.585149,5.8682,-46.335598,-42.834198,160.33847,-33.779068,3.1854315,0.18775612,-0.1341139,-0.3935651
-0.6442647,6.7773867,7.324761,5.9779997,-46.1526,-42.822,163.11288,-35.903732,2.1300104,0.3646206,-0.4258237,-0.36037385
-1.7818098,7.247772,7.4203043,6.2219996,-47.3726,-42.4682,165.7527,-38.26011,1.6041868,0.71566826,-0.28866214,-0.4857611
-2.2319198,8.20261,7.734843,5.9048,-47.6166,-41.785,168.13521,-39.83574,1.4204819,0.051460564,-0.3890019,-0.16430743
-0.90732765,7.153875,10.088717,5.2338,-47.031,-41.8704,169.94664,-39.46752,1.7960831,0.25192362,1.0072615,0.29988685
-1.710732,7.6051817,8.806771,6.1976,-47.7752,-41.785,166.52475,-40.159325,0.29933822,0.20779078,0.914366,1.0662496
-1.9716251,6.5710363,6.3264537,5.368,-48.4584,-40.6382,163.80345,-41.95935,-1.9066427,0.22356202,0.44152832,0.9022086
0.46918872,5.648146,7.568745,3.3672,-48.446198,-40.2478,162.91214,-42.077488,-0.5929192,0.041834608,-0.17989548,0.30638188
-0.15188217,4.271181,7.676559,2.5254,-47.3116,-41.589798,164.0432,-41.310684,-0.39189667,-0.60886675,0.2713754,-0.2021451
-0.85211134,4.337321,6.3954363,4.4652,-46.36,-41.9558,162.71562,-40.18545,-2.96871,0.014422282,1.7148193,0.23988284
-1.652074,5.707328,5.633033,7.3322,-46.9456,-42.1632,159.457,-40.926605,-5.9443154,0.34315372,0.7391503,0.24034916
-0.7768436,5.7639656,6.918869,6.5148,-47.3238,-40.321,159.92517,-42.805542,-5.387516,0.74183154,-0.63331467,0.09436102
-0.66222125,6.2893434,6.691869,5.7584,-48.5682,-39.6622,161.57884,-44.37449,-4.3902583,0.26369792,-0.14630455,-0.08351933
-0.4006547,7.898696,7.831808,4.88,-48.2632,-39.7598,162.21397,-43.690804,-4.314445,-0.763848,-0.16648908,0.09176301
0.42152914,8.112678,9.089288,4.453,-46.6162,-41.8704,162.31358,-41.31695,-4.101284,-0.862156,0.32814854,0.04103522
-0.6385037,6.2636056,10.321553,4.9288,-44.859398,-44.2616,162.66122,-38.892982,-4.734721,-0.36358806,-0.07922263,-0.061719373
0.7318027,6.1448684,8.768989,4.6726,-43.9932,-44.3348,163.48502,-38.74118,-4.0110197,0.28371593,-0.44302717,0.100889355
0.48041153,5.5357685,6.557793,3.4648,-44.225,-44.347,165.13396,-39.321117,-1.4320743,0.20432676,-0.29390812,-0.4501717
-0.23582886,4.8210244,6.340295,3.5746,-44.0176,-43.858997,167.6181,-39.370876,-2.1948988,0.01437232,-0.04748028,-0.5637014
-0.53652567,5.295151,5.393837,5.185,-43.432,-42.6634,169.55609,-39.924854,-2.9720263,0.44224444,-0.07749062,-0.457616
-2.023774,6.3172507,4.8695817,5.856,-44.103,-42.5902,172.10387,-41.396164,-4.008333,0.25648677,-0.17728081,-0.61174786
-3.0898669,6.5197854,6.3685765,5.856,-44.0176,-42.4804,173.81583,-42.463013,-6.10895,0.41621438,-0.1402925,-0.24644448
-2.53329,8.568174,5.9635077,6.4294,-44.6154,-41.1384,171.81685,-46.27577,-11.041092,0.046897396,0.090264164,0.26518014
-3.4157028,8.6465845,10.160169,6.7588,-44.0664,-42.578,171.53676,-45.689632,-10.703649,-0.13479671,-0.088049196,-0.4030578
-2.9259388,7.153052,8.227824,8.0032,-42.9318,-42.455997,168.12846,-45.84027,-12.0693035,-0.35123086,0.946075,0.75287306
-2.7058969,6.820033,7.4078846,7.381,-43.2978,-42.1754,163.26094,-46.55989,-11.760085,0.46234572,0.511941,0.64850307
-1.7123032,6.3404446,8.246155,6.6977997,-43.151398,-42.0778,160.2833,-46.84032,-10.58901,-0.63193244,-0.53357446,0.40264145
-0.6240636,4.3955297,8.695367,7.0882,-41.0408,-42.7122,159.95183,-44.42695,-9.47997,-0.32876474,0.38660374,-0.17654805
-1.3847464,3.9168391,6.162226,8.5278,-39.9916,-42.6756,156.54976,-42.22331,-11.154364,-0.38117456,1.633948,0.5122075
-1.4333786,5.154417,4.795885,11.138599,-39.564598,-41.980198,149.93904,-42.760757,-13.256968,0.05624024,1.306632,0.9014592
-1.4041245,5.655853,5.7108445,11.2118,-40.016,-40.626,146.27051,-44.04259,-13.177811,0.43038687,-0.31289357,0.4256738
-1.4541782,5.587468,7.9224133,11.0044,-40.2478,-39.6622,146.31,-44.826065,-11.070007,0.35506126,-0.50849366,0.1979483
-0.7778911,6.675932,6.803049,12.078,-40.7846,-39.0888,147.41403,-43.15168,-9.96768,-0.08610069,0.74659455,0.36178944
-1.1375451,8.682348,6.5627313,13.590799,-40.3088,-38.1982,146.0264,-43.053253,-10.590621,-0.2635647,0.65586406,0.23102297
-1.6965164,7.3388267,8.452729,15.323199,-39.5524,-38.857,147.96014,-41.67655,-10.910933,-0.65073466,-0.38177413,-0.56586635
-1.8191444,5.839009,11.084331,16.592,-37.7712,-39.7964,151.60593,-39.2279,-10.861281,-0.6183428,-0.7708926,-0.26384783
-0.27555764,5.3153524,9.800815,16.348,-36.5756,-40.345398,154.65295,-38.317394,-9.186563,0.22407828,-0.2289912,0.19793166
-0.4404583,5.553201,6.2933836,16.945799,-36.6,-39.8574,155.09999,-38.343815,-8.197725,0.0013656202,0.42529076,0.16125976
-1.6163855,5.517363,4.2197056,17.6534,-36.075397,-38.869198,155.47592,-38.484997,-9.423339,0.031709034,0.49155664,-0.013173238
-2.6523266,5.8582373,4.5578866,19.861599,-35.8802,-38.869198,156.80528,-39.047215,-9.52468,0.25050804,-0.36558652,0.114795364
-3.2919526,6.3105173,5.801151,20.3618,-35.9046,-38.088398,158.46712,-39.871334,-8.392795,0.14097531,-0.04401627,0.3531294
-4.4501476,6.8571434,6.8828063,20.837599,-36.173,-36.929398,157.50235,-41.92596,-12.326276,-0.3227027,0.5311263,0.7337211
-4.957793,7.3910503,10.141764,21.6794,-35.3068,-36.417,155.93678,-41.128357,-12.030148,-0.45355245,0.9579992,1.1222733
-4.902427,6.6793737,8.621296,22.3382,-35.9046,-33.306,149.47755,-41.296066,-12.713562,-0.7879129,1.0487463,1.8403563
-3.7597196,5.0840125,8.311471,19.1418,-35.746,-31.073399,144.92839,-41.430492,-10.536565,0.28023526,0.95650035,2.184243
-2.3133974,6.3754597,7.750854,16.3968,-36.7098,-28.5724,140.45447,-41.33429,-9.559959,-0.5427508,0.4239751,2.1122315
-0.7648726,4.6202855,8.148665,13.4444,-35.6606,-28.06,137.39227,-40.741364,-6.2426105,-0.2381675,-0.16568969,1.1947844
-0.35194764,4.553248,7.776741,10.5042,-34.196598,-26.473999,136.08112,-34.651783,-4.0091314,-0.20404364,1.5236658,1.3083141
-0.7532009,5.1514993,5.991789,8.967,-32.5496,-24.2048,130.87369,-34.524605,-6.22714,-0.19609973,1.7454624,1.0696304
-1.3263129,5.871181,8.085294,8.1252,-30.914799,-21.2402,127.63212,-34.997925,-7.248344,0.3864039,0.09572665,0.82528424
-0.44823945,6.211981,7.276952,5.9902,-29.279999,-18.970999,126.88148,-37.854794,-5.593614,0.67606527,0.2153683,0.70251167
0.65406597,7.1627035,7.6216416,4.148,-27.7062,-16.1162,126.59831,-39.27358,-4.5204077,-0.032108728,0.4307699,0.22206317
0.2953098,7.1621046,8.542662,2.9768,-24.692799,-15.262199,127.16604,-38.46474,-5.217948,-0.5544751,0.12890123,-0.29529038
0.67860657,6.964134,9.2656355,2.2935998,-21.716,-15.4939995,128.6248,-35.77833,-6.2221956,-1.2632986,0.3362257,-0.2136363
0.32007483,5.697901,11.270929,1.7324,-18.5928,-16.4944,130.94226,-32.311176,-6.530255,-0.7809849,-0.7891453,-0.5202014
1.9961656,4.5626,9.237952,-0.2562,-16.0674,-17.3118,134.35115,-30.857092,-4.5383587,0.048046514,-0.28561446,-0.41120157
-1.1128548,4.585719,6.3098435,-1.4762,-13.981199,-17.08,135.18996,-30.797735,-5.5397334,0.17601512,0.21906546,-0.19548354
-0.34671032,3.6733038,7.5759277,-2.3912,-12.053599,-16.7384,135.33554,-31.418339,-4.714291,0.55983764,-0.27359036,0.041018568
-0.3776853,3.989937,6.9168487,-4.2455997,-11.0166,-15.847799,134.02876,-34.625202,-5.687587,2.0570405,1.5415853,-0.070446014
-3.6376154,6.5751514,0.8201637,-5.0996,-9.7355995,-14.457,130.61082,-44.00959,-8.55031,1.2251278,-0.481964,0.52956086
-1.6612767,7.299023,6.7835217,-7.3322,-8.3935995,-15.6038,129.90723,-45.200268,-8.15162,-0.053858727,0.48447874,0.12878464
-2.728941,7.8401127,6.72419,-8.3448,-6.3196,-15.750199,128.90236,-45.45038,-8.169609,0.008510145,-0.11554479,0.4008262
-1.0780641,8.593089,6.4845457,-10.3578,-4.331,-16.6774,126.67661,-45.282394,-7.8490353,-0.42126054,0.98562807,0.92542416
-1.9185786,8.226552,9.984195,-11.431399,-1.6836,-19.4468,123.196266,-43.72443,-6.8970523,-0.21683384,0.028211715,0.44602486
-1.0788124,6.292411,6.7117705,-12.4684,-0.23179999,-21.167,119.62587,-43.32115,-6.8194165,-0.47868317,0.3815576,0.30921304
-1.4239515,5.343933,7.654487,-14.9572,2.0252,-23.2654,117.326744,-40.579277,-6.6020885,-1.182294,-0.17689778,0.29554018
-0.6724714,3.9538746,7.763199,-16.2626,4.1114,-24.583,115.46169,-34.214043,-5.9372025,-0.42284265,0.8999437,0.35654345
-1.998111,4.311658,6.06586,-16.7994,5.6486,-26.6936,111.18275,-34.19351,-7.4022436,0.17235126,0.50236505,0.6535825
-1.2729671,4.4456587,5.6375966,-17.4826,8.1008,-30.0486,108.228645,-35.468315,-6.360769,0.47430322,-0.26707867,0.7609669
-0.9567829,5.197737,6.479383,-19.1418,8.8084,-31.890799,105.37361,-36.408054,-4.54612,0.023815084,-0.14823641,0.56761503
-0.16130935,7.0066314,7.61416,-20.0324,11.224,-33.977,102.26726,-35.80872,-3.3284845,-0.47978234,0.1385938,0.6440232
0.20350714,8.370728,9.034071,-20.056799,13.0418,-34.904198,100.31077,-34.19985,-2.7371001,-0.9462915,-0.18702336,0.13198219
-0.69903207,6.544326,8.461932,-20.6302,15.7624,-36.6,98.2049,-30.519732,-2.9898553,-1.9322027,0.45665008,0.2264931
0.75469726,4.443938,12.93864,-20.8498,20.056799,-37.3808,95.08185,-23.82989,-4.1753674,-1.5574232,0.6043702,0.0200513
-0.0947206,2.6011505,9.931522,-21.2768,21.8624,-38.125,92.9092,-20.897663,-5.1084824,-0.31857255,-0.19631623,0.1424908
-0.54056585,2.659659,7.2244287,-21.7038,23.3386,-40.138,91.14977,-19.898918,-4.230358,-0.21328656,0.10923296,0.29567343
0.79128367,4.3853545,6.739154,-21.0816,23.729,-41.589798,88.67354,-19.286495,-4.4974794,-0.19476742,0.26975995,0.45326933
0.18974048,4.809278,7.0226426,-21.045,24.583,-42.151,86.86103,-19.339817,-4.5446043,0.17489931,-0.2273258,-0.19376819
0.59630585,4.8820767,7.628226,-22.6432,24.302399,-44.395798,86.693985,-20.069391,-4.00676,0.3689173,-0.22439471,-0.11874234
1.1183915,5.524396,10.020108,-24.961199,23.546,-46.3722,85.755394,-26.142044,-1.262281,0.5246313,0.06559973,-0.16139299
-0.3971382,5.860856,8.978855,-25.937199,21.6672,-49.141598,84.74698,-28.043997,-1.7021217,0.3081472,0.040968604,-0.051327333
-2.159196,4.946346,9.738864,-26.132399,21.5086,-50.1176,83.089905,-27.993729,-2.2401726,-0.2693103,0.92062783,0.2829998
-0.51101243,5.3865795,12.950537,-24.2902,22.4236,-52.728397,79.392204,-27.35143,-2.4945302,0.16119315,-0.41734686,0.8642044
-1.2052561,3.456105,10.000057,-24.217,21.5696,-53.9118,76.77944,-28.057665,-1.2726243,-0.029693913,0.30073622,0.5797557
0.93949974,4.0860043,9.706767,-22.9116,21.7526,-54.6804,73.576485,-27.656052,-1.4199042,-0.043949656,0.28301647,0.25490466
-0.9681553,2.3380127,2.6002526,-21.2402,21.1426,-55.9614,71.6907,-26.617048,-2.2582557,-0.9931556,0.9355331,0.24800995
1.3567642,3.4211645,8.466945,-18.7026,24.5586,-55.7784,68.05997,-22.5389,-4.9821906,-0.87919295,0.9506049,0.101955205
-0.68616325,4.6174426,6.5563717,-16.9336,23.546,-57.852398,66.38226,-23.849672,-5.2037597,0.84573525,0.26861084,-0.22944085
-3.039813,3.3468695,11.502493,-17.0434,20.837599,-60.048397,66.04193,-25.51329,-5.38712,0.90099293,0.098641075,0.2698099
-0.81028765,5.863325,7.430779,-18.5928,16.8116,-62.4884,64.298256,-31.6046,-3.6019893,0.83194584,-1.297156,0.51172453
0.95251817,5.656526,10.310854,-22.3016,13.981199,-64.111,64.39859,-32.539375,-0.35844213,-0.13209878,-0.5317092,-0.11073181
1.0223241,6.432322,8.651672,-22.472399,12.1024,-65.819,64.12078,-32.0814,-1.2336847,-0.44152832,0.26109993,-0.5723614
0.591293,4.2541223,13.46065,-22.4846,11.773,-66.795,64.99448,-30.704052,-1.8690404,-0.13955972,-0.58993125,-0.6433903
1.7245734,3.41069,10.4218855,-25.132,8.259399,-67.2708,66.92426,-31.594477,-0.7213143,0.5722448,-1.017004,-0.58883214
0.90029466,2.0409074,7.825972,-27.3402,5.3069997,-67.2464,68.2719,-29.39424,1.4475564,-0.39364836,0.08455188,-0.6204912
0.1328782,2.8651114,6.8229513,-25.9494,5.0264,-68.6128,68.49889,-27.72264,-0.047156483,-0.57827353,0.28369927,-0.51753676
-0.5478981,3.0976481,5.9440546,-24.8514,4.9653997,-69.1008,68.68354,-26.475283,-1.1294397,-0.04191788,-0.13015027,-0.24997512
-0.122852474,4.289362,6.6137576,-25.229599,3.2452,-69.4302,69.039894,-26.796228,-0.9039976,0.055674005,-0.15448162,-0.33514318
-0.06426935,5.3425117,8.769736,-25.254,2.4034,-70.125595,69.007164,-26.124702,-1.6694806,-0.5293277,0.4679414,-0.28633058
-1.9595045,4.9642277,9.695021,-22.2528,2.6352,-71.5774,67.394264,-25.142467,-3.5819743,0.08242018,0.36275536,0.45688322
-1.8625393,4.886491,10.294543,-20.374,2.1227999,-72.760796,65.87355,-26.076921,-2.5143993,0.52316576,-0.46760833,0.95839894
-0.8121581,5.063063,12.87669,-20.2398,0.427,-73.1878,63.36349,-27.02999,-0.09198731,0.0072611026,-0.6094496,0.9960867
-0.6697779,4.353257,9.219098,-20.2764,-0.5856,-73.7856,61.67838,-27.749664,1.721195,0.27139205,0.5707127,0.607268
-1.987337,4.4971337,9.513211,-16.713999,-1.3298,-73.993,59.0055,-27.245388,-2.1585872,-0.39328197,0.40317437,0.5127071
-1.1259482,2.472088,8.452056,-15.311,-1.2322,-75.1642,57.807083,-24.860142,-3.0187466,-0.34090543,0.35842535,0.38012537
-0.23837271,3.2568624,5.982212,-11.0044,-0.96379995,-75.4448,55.725677,-23.875162,-4.7485566,-0.26859418,1.068781,0.24634457
-0.36062664,3.9864206,6.516568,-7.625,-1.3054,-76.4208,54.317284,-23.757074,-6.668538,0.27080914,0.36215582,0.07031278
-0.7793127,4.7859344,6.680122,-5.856,-4.6116,-76.4818,53.83881,-25.332224,-7.0538654,0.4932054,-0.12943415,0.086616956
-0.19355625,5.119626,8.416666,-6.7344,-6.6246,-76.823395,53.85849,-26.847475,-5.789993,0.4586652,-0.50211525,0.23407063
0.16998832,5.8251677,7.9751606,-7.6372,-8.9304,-76.1036,53.8077,-30.44067,-2.7218516,-0.021433575,-0.059654288,-0.06531662
-0.4261679,6.642264,10.837354,-6.9417996,-8.967,-75.8108,54.380917,-29.691729,-3.3308032,-0.19816482,0.30458325,-0.36825114
-0.6852654,5.204695,13.103242,-6.5513997,-9.2354,-76.006,55.608463,-28.944647,-3.8323174,-0.1164441,-0.25660336,-0.35642686
0.54782325,4.4990044,11.3933325,-5.8315997,-11.0532,-75.7498,56.44412,-29.59436,-4.181398,0.595044,0.0072444486,-0.27923602
0.06479308,3.5534441,8.70861,-6.4172,-13.2736,-75.3228,57.64192,-29.609282,-2.8821745,0.18893854,-0.46276206,-0.36806795
-0.9672575,2.8059297,7.057433,-7.1492,-14.03,-75.5302,58.801964,-26.739183,-3.0527277,-0.15418185,0.60961616,-0.33321133
0.9329905,3.9710827,7.474997,-4.6604,-13.981199,-75.2374,58.632412,-26.489758,-4.7849135,0.53502333,0.48026532,-0.4303369
-1.0755951,4.1445875,4.603526,-2.6352,-18.1658,-75.3228,60.01704,-29.685766,-6.3049235,1.1123976,-0.17260107,-0.5535092
-1.0608559,5.7662106,5.7255087,-3.1964,-21.9478,-74.2492,61.72126,-31.954338,-5.876977,0.45240334,-0.5542919,-0.37644488
-2.157475,6.626103,6.870087,-4.0626,-23.546,-73.6026,63.189445,-33.221462,-5.884531,0.14623794,-0.04912902,-0.35800898
-2.9421747,6.8293858,9.195905,-2.9524,-23.3752,-74.5664,64.08125,-34.493874,-7.3246946,-0.3168572,-0.103021055,-0.37756068
-3.9223757,5.7215433,10.081834,-1.7202,-22.5334,-74.932396,64.15708,-33.75739,-8.093785,-0.06971324,0.38453865,0.39862788
-2.723629,5.4655886,11.734955,-2.5132,-22.5822,-75.0422,62.62967,-34.052876,-6.2671833,0.37323067,-0.68505836,0.646871
-2.031555,5.2840033,8.7261915,-4.5262,-25.2418,-74.8104,61.533745,-35.659508,-4.3781414,0.36796802,-0.123888396,0.8653369
0.65982705,5.149329,8.185776,-6.0512,-25.803,-74.237,60.1092,-35.725758,-2.3774555,-0.32431814,-0.38975134,0.30231833
0.16699557,3.647267,6.9024835,-7.1126,-25.0222,-75.103195,60.0914,-34.474205,-1.4426968,-0.11612768,0.48479518,0.07112883
-0.3450643,4.7833157,6.0884547,-5.5144,-24.9124,-74.603,57.92829,-34.44733,-2.6799283,0.13501321,0.9311198,0.71363646
0.06838439,6.3966336,5.791873,-3.1842,-26.473999,-74.2492,55.229786,-35.98951,-3.1584246,0.968258,0.19456758,0.44367668
-0.3923498,7.5088897,5.793968,-2.7328,-29.975399,-73.749,55.402725,-39.157143,-2.4711103,0.6192921,-0.54481584,-0.29617304
0.05484218,7.428011,7.67828,-3.843,-30.329199,-72.6754,57.49709,-42.74768,-1.9577013,0.29953712,-0.6168773,-0.46735853
-0.50966567,8.161534,9.308507,-6.0267997,-29.9998,-71.309,60.484306,-43.127136,-1.173418,-0.074476264,-1.1360794,-0.5798557
-0.0624737,6.9987755,9.851991,-8.0764,-28.5602,-70.894196,64.19717,-42.600784,0.15047948,-0.32030454,-1.3194722,-0.68567455
1.3971664,5.371466,9.651476,-11.1874,-26.559399,-69.1008,68.31175,-41.46476,2.8596911,-0.4137496,-2.1185598,-0.09577661
3.250054,4.6463227,8.653468,-16.1406,-25.5346,-68.8934,71.607285,-40.955574,6.233351,0.009176302,-0.33865714,-0.6783968
0.043469723,4.011111,5.587543,-12.017,-24.887999,-68.6738,70.54378,-39.584927,5.3741374,0.03683844,0.56400114,-0.59271246
-0.073696524,3.5462615,5.7596264,-7.7103996,-24.4366,-67.3928,68.71782,-39.76534,3.424407,0.26119983,0.9669757,-0.15832867
-1.4030021,3.8292263,4.343082,-1.3664,-25.546799,-67.1122,63.749226,-40.875706,-0.3532084,0.5141893,1.7022122,-0.076241575
-1.3313258,5.827412,5.8170123,4.5994,-25.7542,-64.477,60.072556,-41.054142,-2.181936,-0.58936507,-0.4546183,0.030759763
-0.5247791,6.862755,7.251513,7.3078,-25.4126,-62.219997,57.265755,-40.03128,-3.0557535,-0.036272205,0.94672453,0.036138974
-2.378789,9.221717,6.6019363,12.053599,-26.242199,-58.7308,53.96145,-40.014824,-4.671195,-0.37994218,0.05036141,0.21102163
-1.2253823,7.769783,8.581343,13.1882,-27.5354,-55.839397,51.204422,-38.003445,-4.0553613,-0.91781336,0.22552718,0.11063189
-2.716521,4.366874,12.382736,13.176,-27.633,-54.277798,49.48815,-33.44311,-3.5971859,-1.4072549,-0.3440197,-0.08092132
-1.8106898,3.23524,11.229778,11.9925995,-27.059599,-52.6064,47.082886,-30.936056,-3.4795043,-0.3518304,0.56500036,0.9846455
-0.34326866,5.430573,9.287333,9.5282,-30.8538,-50.1664,41.70594,-30.56752,-3.270918,-0.12137366,0.17546554,0.63434726
-0.7320272,3.5262103,7.493627,7.5639997,-32.3422,-48.1656,40.05303,-30.258577,-3.4432957,-0.08941481,0.61061543,0.07209475
-0.744073,4.0191164,6.1533227,8.113,-33.367,-46.1404,37.43732,-30.320444,-5.2885084,0.13361427,1.1162612,0.6881227
-1.6073323,4.989666,5.103615,6.5513997,-34.6846,-42.9562,35.31593,-31.708094,-6.4935775,0.55912155,0.46297854,0.7256106
-1.0705074,5.871705,6.0737906,3.0377998,-37.149,-39.7964,35.123726,-33.70159,-5.0952387,0.6747496,-0.85096455,0.30058634
0.36893153,5.926472,8.977359,-0.1952,-37.9176,-36.417,37.817257,-35.218853,-2.9310682,0.2794192,-0.34809992,-0.1763482
1.5423896,7.7958946,10.691382,-1.2932,-37.4296,-33.196198,39.80313,-35.02075,-3.5912504,-0.37316406,-0.016670559,-0.7080241
-0.18218379,5.417405,8.525678,-0.2562,-36.538998,-32.391,43.961273,-34.388012,-5.4233217,-0.24564509,0.03622224,-1.3181899
-1.1423335,4.566865,11.037793,0.3294,-34.1356,-29.706999,48.869267,-30.902912,-7.5747733,-1.230274,0.17071918,-0.5619194
-0.37319618,4.5955954,9.124527,0.93939996,-31.6834,-29.2556,50.74239,-28.861273,-8.201794,-0.1254039,-0.27182505,-0.11942515
-1.0220249,4.087725,9.051654,-0.3904,-29.7802,-27.267,54.697865,-27.86369,-5.9979854,-0.46436083,-1.0411855,-0.5332414
-0.8135797,3.2984617,8.300997,-1.6104,-27.694,-25.5712,58.655537,-26.358849,-5.27296,-0.0051294025,0.12991711,-0.28674692
-1.341127,4.094833,5.7570076,-1.8299999,-25.376,-22.1064,60.27365,-27.632837,-6.306443,0.73398757,0.11732676,-0.27437308
-1.7272669,5.0583496,6.14614,-2.4888,-24.2292,-18.483,63.36272,-29.789295,-6.0308304,0.57878983,-0.59421134,-0.2750559
-1.8293946,5.639991,7.9973817,-3.0133998,-22.2528,-16.104,67.08921,-31.297268,-5.5128484,0.38878542,-0.15917802,-0.40439013
-2.4266732,6.3309426,7.7844477,-4.0992,-19.276,-12.8222,69.06837,-32.515823,-6.747287,-0.08476838,0.04243415,-0.29890427
-1.8801217,5.9412866,12.022184,-4.5506,-15.6648,-11.370399,71.5784,-31.027037,-6.61635,-0.5648505,0.10037308,0.09226263
-1.8962077,6.183699,9.774777,-4.6116,-12.1024,-11.1996,69.66929,-30.696743,-7.4529476,-0.0054791346,-0.1447724,0.97193855
-1.8026842,4.36029,9.264588,-4.4774,-8.845,-10.1504,68.75912,-31.666002,-5.4082975,0.5118244,-0.32055435,0.3542785
-0.39653966,4.450447,9.733851,-5.3436,-5.5875998,-9.9796,68.10078,-29.993326,-6.186911,-0.29595655,-0.48704344,0.58819926
0.057984572,3.4005895,8.7532015,-5.0264,-2.8669999,-10.6994,67.74142,-27.745438,-4.4127502,-0.1976319,0.6086003,0.029677259
-0.5851579,3.4258034,5.763592,-3.9039998,-0.0244,-11.6998,65.85758,-27.558857,-7.007268,-0.012640314,1.4386976,0.42131048
-0.9045593,5.2096334,4.7657332,-2.5132,2.3058,-12.6147995,62.52727,-28.865053,-9.600467,0.5076943,0.47362038,0.38851896
-1.1875241,5.531429,6.5274167,-2.8913999,5.1362,-12.3586,62.17964,-30.412071,-9.1112175,0.34486905,-0.54005283,0.054991193
-0.33062428,6.4069586,9.036466,-2.3912,7.4298,-13.0906,62.89633,-31.517015,-7.6413026,9.825804E-4,-0.22797531,-0.22133039
-1.1692683,6.888567,9.248053,-2.6352,11.0654,-14.5668,64.04986,-31.234215,-8.091133,-0.20809054,-0.08158748,-0.49423793
-0.6296002,7.194127,9.175928,-1.9275999,13.542,-15.2866,64.85324,-30.710806,-8.506015,0.1211405,-0.08380245,-0.0356227
-0.17485154,5.9560256,9.686267,-1.5494,15.2012,-17.7876,64.51977,-30.601957,-6.980015,-0.17075248,-1.2314063,-0.37880972
1.7903391,3.383007,11.029189,-2.3424,17.629,-19.8738,65.735634,-29.9981,-4.2633395,0.3083304,-0.8830067,-0.48867553
0.42250177,3.0615854,8.341847,-2.5864,18.727,-22.277199,67.04919,-28.481972,-1.5403136,-0.33677527,-0.23806757,-0.80926317
0.04511574,2.8696003,7.926753,-3.355,19.471199,-24.1194,67.413666,-27.134735,-2.5571818,-0.24839298,0.28952813,-0.45325267
-0.28266543,3.5223196,5.4018426,-2.806,20.3862,-25.7542,66.090454,-27.316322,-3.6618094,0.38585433,0.12398832,-0.1944843
-1.5994016,4.6903157,4.2242694,-4.0504,21.4354,-28.1698,65.71758,-28.354967,-3.8891697,0.023998277,-0.3883191,-0.29883766
-1.6566379,5.697751,7.6165543,-4.8922,22.7164,-30.0852,65.5314,-27.98142,-2.9179833,-0.23813419,-0.6092998,-0.30649847
-2.5714474,6.2994437,9.242741,-4.8434,23.7656,-30.3536,65.18558,-28.883509,-4.0398026,-0.20247817,0.2563369,-0.37131545
-2.4913166,6.8273654,10.202367,-3.8918,25.034399,-32.3666,63.330643,-27.815138,-5.9876785,-0.42122722,0.6053028,-0.07640812
-2.909778,6.1476364,10.080487,-3.721,26.327599,-34.8676,61.56829,-26.37074,-7.5034833,-0.84008956,-0.34045577,0.124954246
-1.2594249,2.8221653,13.720347,-4.27,27.6574,-35.916798,59.94906,-24.298483,-5.3553367,0.13066654,0.007544219,0.5027814
-1.5379753,3.8325183,9.299603,-2.0983999,26.7668,-37.881,55.828735,-25.724253,-4.4823785,0.41528177,-0.34849963,1.3230695
0.58066875,3.343727,10.387319,-1.8177999,26.0836,-40.7236,53.040455,-26.357141,-1.3507352,0.022665964,-0.3577925,0.5018987
0.16213235,2.866458,6.737134,-0.3294,25.705399,-42.2852,49.479828,-25.296453,-1.856672,0.2564035,1.5174538,0.64483917
0.25049335,4.3949313,4.2126727,3.9162,24.3512,-44.7374,43.819202,-26.86474,-5.3194323,0.558572,1.2342542,0.63632905
-0.72559273,4.9745526,5.1632457,7.1492,22.8872,-46.6162,40.8427,-28.8207,-6.2331357,0.35174713,-0.3809081,0.08227029
0.49081135,5.0625396,7.9920697,6.344,22.3992,-48.287598,40.467167,-29.685776,-4.876847,0.14635451,-0.12830168,-0.0366719
0.60902506,5.854721,7.9946136,6.5513997,22.508999,-49.7516,39.29427,-31.230076,-2.8374007,0.17701435,0.21195425,-0.21481872
-0.68272156,6.830134,7.542708,5.6363997,22.021,-51.2156,39.544056,-34.84995,-1.5297376,-0.41353312,-0.4879594,-0.6105655
-1.7918355,6.2042747,10.659435,4.7336,24.1682,-51.947598,40.583485,-32.61789,-1.8731945,-1.0619862,-0.12458786,-0.73485357
-2.8696752,4.4006176,13.404761,4.026,26.4984,-52.484398,41.66426,-29.661573,-2.1445124,-0.39311543,-0.6695536,-0.46149635
-0.29755437,3.553968,12.985776,1.5128,25.7298,-54.5584,42.35575,-30.054804,0.5257893,0.66164297,-0.9657433,0.06979652
-0.63753104,3.0958524,7.773973,0.3172,23.1068,-57.632797,42.267204,-31.395618,1.0019844,0.54006946,0.43078655,-0.28586426
-0.85525376,3.408595,5.2462945,2.0374,21.167,-58.938198,40.189972,-32.14737,-1.7764701,0.06025383,1.1041039,-0.09797492
-0.7953987,4.3642554,4.3150997,3.7698,19.5688,-60.341198,37.841393,-33.01341,-4.0640984,0.4983681,0.39604652,-0.0912967
-1.2921956,5.573851,4.8969655,3.6111999,17.9828,-61.451397,36.840973,-34.59967,-4.371968,0.36027393,-0.26398104,-0.041235067
-1.4038252,6.6659064,7.521983,2.9524,16.409,-63.622997,36.79942,-35.815712,-3.8130789,0.26304844,-0.21909878,-0.05216003
-2.1760302,7.961918,7.7716537,2.9157999,15.3354,-65.5018,35.9884,-36.51651,-3.7542052,0.022416156,0.09962366,-0.058238704
-2.061333,7.809811,10.412683,3.5258,15.4086,-66.2826,34.699543,-35.25513,-4.549563,-0.6814944,1.0479469,-0.18855551
-4.1288757,6.0002437,11.273398,6.6856,17.08,-65.941,32.66692,-32.967003,-7.0702515,-0.60750115,0.23455359,0.24786006
-4.302156,4.767604,9.2625675,7.2468,16.2382,-67.1244,30.378248,-32.85699,-6.4715896,0.3697833,-0.10352067,0.87802714
-1.7252468,5.0517654,8.977957,7.2223997,12.9198,-67.588,27.247402,-33.92679,-3.522486,0.18151091,-0.5631851,0.90730476
-0.90298814,3.754632,7.55842,7.4298,10.748199,-68.5152,25.663427,-33.564205,-2.017411,0.027728751,0.26439738,0.38577107
-1.1913399,3.420566,5.5513306,9.5526,9.0402,-69.1374,22.917599,-33.727184,-2.8346956,0.12064089,0.7305235,0.49701914
-0.49724576,4.462642,5.481899,10.919,5.7096,-69.503395,19.578379,-34.979412,-2.4647815,0.6521836,-0.33689183,0.78023547
0.3390788,5.1532197,6.1737485,8.235,-1.1223999,-70.3452,18.75206,-38.415535,0.9465202,0.4515373,-0.4893084,0.05639012
-0.10998364,6.2248497,7.429058,7.6615996,-3.1232,-70.589195,18.98632,-38.65981,1.287315,-0.21232063,-0.18592419,-0.3635714
-0.70052844,7.327454,8.159814,6.6734,-2.8913999,-70.4794,19.86904,-37.67405,1.2815262,-0.6500352,-0.6511677,-0.54398316
0.51422966,7.481581,9.225682,4.9288,-1.4518,-70.259796,21.164581,-35.60605,1.5049301,-1.1065354,-0.39787844,-0.6873566
-1.2784289,5.76419,12.345851,3.843,1.22,-70.7844,23.623863,-31.635605,0.80294144,-1.2370187,-0.44116193,-1.0271462
1.6527474,4.368595,10.773159,2.0008,2.501,-70.1744,25.014973,-28.985577,0.73998874,-0.52264947,-0.4389303,-0.2878794
1.248651,3.1065514,10.23409,0.28059998,1.9397999,-69.2228,26.784266,-27.84604,1.7474267,0.16976991,-0.4096028,-0.785598
0.33601123,2.7452514,6.306552,0.1464,-1.1712,-67.7344,27.48046,-28.238073,1.0944132,0.8100959,0.41141805,-0.16086006
-0.045489833,3.8114944,4.4715457,0.95159996,-5.8315997,-67.344,26.92068,-31.003675,0.57964617,1.0221834,-0.36084014,-0.30548257
-0.7273136,4.6946554,4.8511763,-0.1464,-10.4676,-66.7706,28.607983,-33.324383,1.2150228,0.2623656,-0.6460383,-0.7866139
-1.6635213,5.6033297,8.450185,-1.3542,-12.9442,-65.5628,30.755438,-33.35406,-1.3541145,0.079056084,-0.17439969,-0.7080574
-3.0098855,7.1885905,7.9078236,-1.5494,-15.225599,-63.4766,31.585447,-34.0684,-1.9923134,0.13291481,-0.25252315,-0.25577068
-1.6455648,6.9396687,11.183241,-0.45139998,-17.2996,-61.5734,31.34683,-33.28065,-2.0703166,-0.5183195,0.8850052,0.11382944
-2.5107694,6.946477,9.796774,2.684,-18.5318,-59.1578,27.771212,-32.546364,-4.3587027,0.003147588,0.13081641,0.85764277
-1.5171009,5.7656865,9.166725,2.1715999,-21.0816,-55.1196,25.674717,-33.819164,-2.002672,0.48526147,-0.46234572,0.7225963
-0.13908815,4.958092,8.82832,1.0004,-22.57,-52.2404,23.520712,-34.383915,0.1721509,-0.021633422,-0.104303405,0.7767548
1.7275661,4.4946647,10.4883995,-1.403,-22.350399,-47.8484,21.747784,-33.292458,2.871004,0.14505552,-0.4462747,0.45726627
0.66237086,3.9460933,7.461754,-1.6714,-23.8022,-45.0668,19.623539,-34.51052,3.3375049,1.3333616,1.071429,0.3695002
-0.10931027,5.5233483,4.4724436,0.427,-25.5712,-40.1258,15.044184,-38.41861,1.1159463,1.1403761,1.1048867,0.6624257
-0.09554361,5.82427,4.537536,1.342,-27.3158,-35.684998,12.037588,-42.19108,0.7678455,1.2514744,0.01931853,0.25965104
-0.34633625,6.7984104,4.2482862,0.91499996,-27.4012,-30.4268,11.036556,-45.20945,1.2612467,0.5995406,0.03437366,0.21170443
0.91226566,8.473529,6.0341363,0.26839998,-26.0348,-27.571999,9.83953,-48.19077,2.7217162,-0.3458683,-0.30015332,-0.16122645
1.7159692,9.124677,7.8196125,-0.0976,-22.435799,-24.961199,9.758019,-46.777008,3.015077,-0.7906275,-0.1294508,-0.12007465
0.62802905,7.2672253,11.494114,0.6466,-18.9344,-23.2288,9.474873,-43.30894,1.2394092,-1.0885491,0.68109477,-1.0608871
-0.7860463,5.2744265,8.012869,1.5494,-13.664,-21.838,8.904293,-40.58156,-2.559051,0.015538094,0.46391118,-0.26639587
0.29209262,4.534169,6.916549,1.0857999,-10.492,-21.96,9.391944,-40.278893,-2.2458425,-0.16155954,-0.5021652,-0.1055691
0.23014264,4.359467,6.0030117,0.54899997,-6.6368,-20.996199,9.9782715,-39.74742,-2.003203,-0.0814709,0.14002603,-0.17236792
-0.6410475,4.9824834,4.7593737,0.56119996,-3.6843998,-20.5448,10.046159,-39.872066,-2.8084064,0.18855551,0.18019526,-0.27049273
-1.1585692,6.0758853,5.1072063,-0.0854,-0.109799996,-19.6786,10.692748,-40.472034,-3.512124,0.12595348,-0.20412691,-0.31749004
-1.611223,7.116241,6.3520417,-0.6588,3.0621998,-19.52,11.681299,-41.945904,-4.576997,0.30316767,0.039169986,-0.2870467
-2.0778677,8.172458,6.753295,-2.6474,7.9909997,-18.727,11.81034,-44.31209,-6.852429,-0.18752296,0.051793642,-0.2563036
-2.195034,7.9067016,9.960852,-2.6474,12.6147995,-20.2764,12.152553,-42.727123,-7.6035376,-0.690321,0.701629,-0.0667655
-2.35769,8.00636,10.135928,-2.9768,16.8238,-20.9596,10.054686,-40.87068,-9.043923,-0.6212406,-0.08731642,0.34170482
-2.745476,5.6170964,9.324069,-3.5014,20.8254,-23.789999,9.461922,-40.090733,-8.248261,-0.04656432,0.5765582,0.5455486
-2.3009775,6.2966757,7.5491424,-1.5128,25.0466,-27.5964,6.614301,-39.811935,-8.169469,-0.22795865,-0.20162882,0.7189324
-0.99060094,5.196914,7.763872,-1.3542,26.132399,-29.0238,6.39384,-39.53056,-6.7207212,-0.11872569,-1.1397599,0.50761104
-0.22610243,3.3001826,7.469236,-2.0983999,29.6582,-33.818398,7.268358,-36.896366,-3.1940565,0.13003369,0.75487155,0.3598576
-1.2452093,4.532897,3.9914336,-0.2074,31.5248,-38.4544,3.8858988,-37.868187,-5.5228934,0.32575038,1.7217473,0.5203679
-2.586935,7.463176,2.8663085,2.8425999,32.452,-41.9314,0.16199672,-39.12906,-8.454651,-0.019684916,0.92993736,-0.06876397
-3.5416229,6.6332107,7.824401,3.2818,35.4654,-45.6646,0.15994628,-40.810673,-12.242234,-0.66450745,-0.7661129,-0.6519504
-0.6501006,6.341043,11.385402,1.0613999,37.161198,-48.3486,2.2750912,-39.144817,-11.645241,-0.13169909,0.37902623,0.039636295
-0.8774001,7.287127,11.573048,2.7084,37.941998,-51.7402,0.94380486,-38.68272,-13.181731,-0.11990812,0.7308733,0.19808154
-0.914211,5.535469,9.281796,3.355,36.4048,-55.9614,359.39056,-40.35142,-11.800108,0.69973046,-0.81174463,0.78922856
0.67913026,3.433435,7.854852,2.7206,32.696,-61.305,0.3856843,-38.40241,-7.009269,0.0037970904,-0.62400514,0.23491998
1.0322751,4.4954877,7.888595,0.2074,32.0128,-63.4766,1.8185273,-37.378124,-5.21821,-0.6267031,-1.0436003,-0.36123985
0.3936217,4.592827,7.6613708,-3.0865998,32.098198,-64.0622,4.942981,-34.441277,-2.931298,-0.45515123,-0.38317305,-0.6049031
0.22647652,5.1153617,5.87784,-5.1117997,31.2442,-64.965,5.6819086,-33.49404,-4.3148723,-0.05825536,0.56749845,-0.28464854
-1.4019548,5.8016744,5.6553288,-4.9653997,29.9144,-66.6486,5.9659467,-33.99732,-5.64895,0.45207024,-0.29587328,-0.4055892
-1.6556653,5.748254,7.002666,-7.3199997,25.5956,-70.455,8.291112,-35.561348,-4.4728923,0.5590549,-0.86202276,-0.3103122
-2.4358757,7.14123,7.5147257,-10.004,21.167,-71.3334,9.31735,-37.15715,-4.4498234,0.29414126,0.4190622,-0.0013323124
-2.9196541,8.197223,8.427889,-8.296,18.8246,-73.139,8.273049,-37.23203,-5.409826,-0.4256738,0.21277028,0.2045599
-2.1981015,7.3380036,9.330354,-6.8198,18.056,-73.8344,6.324416,-35.86968,-5.7563596,-0.62002486,0.33096305,0.67403346
-2.430339,6.022016,10.393679,-6.1488,17.6534,-73.749,4.430248,-34.624184,-5.1220264,-0.11731011,0.2760218,0.6740002
-1.0945991,6.054712,8.921694,-6.0512,15.006,-73.4196,1.4800807,-34.66727,-4.168618,-0.24657771,-0.065683,1.12229
1.1682956,5.0113635,10.051757,-7.7103996,13.5176,-73.3586,0.076616056,-34.388317,-1.6727643,0.2154016,-0.61288035,0.30458325
0.59278935,3.4591725,6.708628,-8.5034,11.3826,-74.2736,359.85516,-34.043056,-0.35144523,0.47655147,0.7802188,0.17654805
-0.45429978,4.708647,4.311284,-4.7946,6.832,-74.5664,356.8857,-35.6515,-2.7532783,0.525081,1.2593683,0.42197663
-1.6701801,6.23914,4.5394063,-2.5376,3.3184,-74.163795,355.3266,-37.628044,-4.121463,0.6558141,-0.31292686,0.027112557
-1.1861773,6.7170076,6.4155626,-6.9296,-1.3664,-74.7616,357.49683,-39.661415,-2.3500805,0.42767227,-1.2657634,-0.3022184
-0.04122516,6.663737,9.134104,-12.9198,-3.8186,-74.1394,1.1744466,-40.236443,-0.16255073,-0.12124043,-0.6302504,-0.45256987
-0.047958855,7.799561,9.595736,-14.1398,-4.4407997,-74.5542,2.1332326,-39.02884,-0.7922277,-0.62315583,0.35712633,-0.13084973
-0.2989011,7.4012256,9.951574,-15.3354,-4.0748,-73.3708,2.5662248,-37.27212,-1.1610043,-0.32510087,-0.49325535,-0.333611
-0.51318216,5.456161,8.1689415,-17.873,-5.2826,-73.7978,4.5475783,-37.17842,-0.24175856,0.021316998,-0.5510278,-0.09001435
1.2387749,5.056105,6.8477907,-20.0324,-6.6734,-73.1512,5.2339005,-36.959423,0.76023906,-0.12600344,-0.352763,-0.12277259
0.07062895,4.7474775,6.45185,-22.57,-7.5518,-72.4924,7.4143167,-36.44858,1.6177528,-0.23886696,-0.81817305,-0.5874665
0.17380407,4.266991,5.7149596,-24.6196,-8.7596,-71.8458,9.463068,-35.924023,1.9434186,-0.13366424,0.13619563,-0.38647053
-0.30817866,4.677971,5.234847,-22.4968,-10.431,-71.5774,9.559112,-35.744396,0.036618568,-0.032275267,0.6708359,-0.4769845
-1.3747207,5.4936457,7.5396404,-21.227999,-11.431399,-72.9682,9.928322,-35.400967,-2.0317178,-0.046847433,0.20111255,-0.34650114
-2.2242134,6.5320554,7.495647,-20.1178,-13.5542,-73.7978,9.822402,-36.146267,-4.1948,0.18322626,0.47964913,-0.0074776034
-2.2199488,7.6948895,9.690157,-20.374,-14.9572,-73.3342,8.733233,-36.137054,-4.8780236,-0.37566212,-0.07144525,0.51673734
-1.8763059,6.779781,7.801581,-17.873,-14.700999,-73.9076,6.1020303,-35.950787,-5.56596,-0.36503693,0.55963784,0.5968926
-2.4133554,6.2414594,9.997887,-17.6534,-14.3594,-74.298,4.3091936,-34.753212,-5.07948,-0.33745807,0.38740313,0.5510111
-2.1894226,5.171775,8.090681,-15.8356,-13.7372,-74.2736,1.8961602,-33.39144,-6.29705,-0.7889121,0.5523434,0.5989077
-1.028534,3.8484547,9.894338,-14.7864,-10.1138,-73.8954,0.21556439,-30.04068,-6.1097665,-1.0146891,-0.29457426,0.27327392
-0.5791724,2.7234793,7.850887,-14.871799,-7.3322,-73.2488,0.109123334,-25.419744,-4.9053593,-0.49562022,0.72116405,0.390201
-0.94279176,3.591153,5.561581,-11.4558,-6.9417996,-73.8222,357.79282,-24.39157,-7.0390644,-0.2959399,1.1280689,0.88597107
-0.732102,4.6227546,5.7004447,-9.6868,-7.5151997,-72.8584,356.79868,-24.556025,-7.7139163,0.07066252,-0.06813113,0.57176185
-0.51430446,4.4639893,8.289848,-11.626599,-8.3692,-72.1996,358.89468,-24.889023,-5.427666,0.055074465,-0.89259934,-0.009625957
0.16811785,4.811148,10.015394,-13.395599,-9.943,-70.284195,1.7471849,-25.196064,-3.9893785,0.24367994,-0.20252813,-0.14687079
0.26029462,6.1302037,10.381783,-14.3716,-11.8828,-69.2594,3.481294,-25.76867,-3.6904864,0.034440275,-0.37193164,-0.14510547
0.37663785,5.9875994,10.588656,-14.1642,-11.5412,-68.1858,6.1187024,-25.412712,-3.246155,-0.36009073,-0.045964777,-0.33540964
-1.0651205,4.114735,11.208231,-14.4204,-10.3578,-67.478195,8.864201,-23.32003,-3.272538,-0.75836885,-0.20490964,-0.3156914
0.57752633,3.6973956,10.644321,-15.6282,-8.3082,-66.3558,10.707174,-21.745686,-2.3370144,0.006844755,-0.6034043,0.37826014
0.8686463,3.0817118,8.740183,-17.8242,-8.1008,-63.8304,12.91822,-22.288029,0.34848118,0.2360358,-0.4964196,-0.31464222
0.4320786,3.289708,6.176068,-18.056,-8.4911995,-62.8666,15.075747,-22.305904,0.0020437206,-0.23556948,0.37764394,-0.11760987
0.13377602,3.9220765,5.899238,-17.726599,-7.9056,-62.1712,16.151558,-21.722662,-0.98478836,-0.19231929,0.27843663,-0.3692004
-1.7755998,3.9942765,6.233379,-16.6408,-7.9788,-61.195198,19.226864,-21.459124,-1.9845419,-0.02981049,-0.19496727,-0.79232615
-2.7791445,4.511125,7.827693,-17.6534,-8.296,-59.5482,22.77147,-21.312195,-2.0202718,-0.2313394,-0.5334745,-0.36903387
-2.8203697,5.1455135,9.443929,-18.5318,-7.7348,-58.4624,24.194714,-22.309317,-5.373599,-0.39126685,-0.1288346,0.047546897
-2.9078329,5.1028666,11.311181,-19.459,-5.7218,-56.4738,25.044666,-20.630709,-4.9941177,-0.7228627,-0.064583845,0.38678694
-2.308609,4.2999864,12.050092,-18.812399,-2.2935998,-56.1932,23.564999,-18.54095,-5.269613,-0.6534659,0.29182637,1.186724
-2.062156,2.5157075,11.694029,-17.799799,0.56119996,-55.058598,20.85158,-17.748516,-4.323756,0.08478503,0.46234572,1.3981619
-1.9299511,2.375123,10.26484,-16.0308,2.3424,-54.912197,16.98974,-18.807245,-4.354321,0.32358536,0.08718319,1.6499023
-0.2503437,1.5429133,10.388067,-15.7014,3.0744,-54.8024,13.384449,-19.883646,-2.188468,0.33031353,-0.19718224,1.5234659
-0.15382746,1.3171102,8.423475,-14.762,4.209,-54.3876,10.538934,-17.871082,-1.373437,0.4153817,1.1400764,1.4998506
-0.8280197,2.341155,6.2693667,-10.2358,4.7214,-55.2416,5.385363,-19.40532,-4.558033,0.35719296,1.8024021,1.4666427
-1.3131448,3.2807298,7.0518217,-4.6238,5.246,-55.3148,359.723,-21.622541,-7.3176174,0.4873765,0.32052106,0.989142
-0.4640262,3.490297,8.587852,-3.5746,4.2334,-55.143997,358.15265,-23.778797,-6.642128,0.6823605,-0.04026914,0.523299
0.4528782,4.611008,9.074997,-2.3912,3.7454,-55.3514,357.573,-25.480904,-5.47313,0.19545023,0.30956277,0.16022722
0.3333926,5.347225,10.3283615,-1.3542,4.8677998,-55.327,357.43332,-25.314947,-5.6480684,-0.45130417,0.3038505,0.16913706
0.6397756,5.349245,10.96896,1.342,7.2956,-55.363598,356.94662,-23.3517,-7.4572334,-0.8955637,0.72657657,-0.40493968
-0.8949825,2.9049897,11.404106,2.7572,9.943,-55.302597,358.00397,-20.95777,-8.967831,-0.49415466,0.023248851,-0.13879365
1.1162965,3.0351744,11.2388315,2.2082,11.0288,-55.9614,357.79614,-20.840183,-7.9592924,0.5764583,-0.54917914,0.46569315
0.7901614,2.692953,7.0204725,2.9524,9.577,-57.156998,357.21353,-23.11517,-5.182499,0.7941248,0.42016137,0.119408496
-0.24720132,3.5045128,5.1046624,4.5262,9.1622,-58.0354,356.36856,-24.772858,-6.0619655,0.16568969,0.22526072,0.098074846
-1.3185318,4.0557027,5.629367,5.1605997,9.9796,-58.2184,356.54123,-25.031635,-6.006241,0.090164244,-0.31394276,-0.18687347
-2.7774236,5.174917,6.82759,4.1236,11.2118,-59.1578,357.43573,-25.232586,-5.0193415,0.0010325421,-0.6114148,0.07266099
-3.3539026,6.532355,9.18109,3.0621998,12.0048,-59.9264,357.53198,-27.375883,-5.856794,0.02426474,-0.29842132,0.21949847
-3.6734536,6.513276,10.540847,3.1109998,13.0906,-61.2684,357.32272,-27.162392,-5.3654814,-0.29710567,0.07787366,0.08358595
-4.232724,5.6059484,10.554614,5.5144,15.5428,-62.1834,355.75665,-26.135395,-6.586991,-0.5190856,1.281468,0.798638
-2.956465,4.3553524,11.597064,9.1378,16.4578,-61.5734,351.7101,-25.27071,-7.2808747,-0.06281853,0.17216806,1.1859412
-3.2989855,3.2114475,9.491289,12.627,15.9332,-64.3062,347.62903,-26.163292,-6.8366027,0.2504081,0.5758587,1.75732
0.08723872,3.0630817,9.272893,17.3118,13.4688,-64.6356,342.22745,-25.298302,-4.60254,0.014871937,0.27513915,1.5629023
-0.7731027,1.3269863,7.813253,19.593199,13.054,-66.0142,338.76437,-23.451746,-3.260546,-0.30325094,0.8765117,0.72206336
-1.3492823,0.81911623,6.369998,23.875399,12.7246,-65.916595,334.46625,-22.825056,-5.245167,-0.18560778,1.254472,1.4970195
-0.88525605,2.6399815,6.652514,29.011599,11.5534,-65.636,329.81998,-23.131355,-6.43773,0.087566234,1.1710526,1.7292582
-0.3470096,4.3626842,8.732252,33.1352,7.2468,-66.5998,324.77313,-24.906933,-5.9880548,0.3646206,-0.42762232,0.3795758
0.10796353,4.6875477,10.425701,32.9156,6.7344,-67.588,324.7948,-25.72812,-4.9886956,0.20191194,0.07892285,-0.049029097
0.17088614,5.926472,9.944242,35.1848,6.0878,-68.4786,324.29807,-25.7841,-6.4061794,-0.27540562,0.42324233,-0.032175343
0.94084644,5.8714805,10.318411,36.9172,6.8808,-68.3566,324.2459,-24.843763,-7.1446786,-0.20057963,0.36930034,-0.15306604
-0.56525606,5.2901382,9.775525,38.173798,8.0398,-69.2106,324.81793,-24.260803,-8.525441,-0.24762692,0.18076149,-0.6594447
0.29074585,3.656844,10.739716,39.0522,10.0162,-71.309,326.8563,-23.28739,-8.296789,-0.017769717,-0.9558675,-0.28866214
1.3689597,2.716895,10.728567,34.953,9.4184,-75.3228,329.5477,-23.602718,-5.1267285,0.43060336,-1.1158615,-0.59362847
0.6700772,2.1858313,7.0878844,33.3914,7.686,-78.1898,331.40396,-23.385838,-2.97168,0.4124506,0.50023335,0.025530437
0.521936,3.563395,5.1061587,36.6,5.429,-78.1288,329.68445,-24.664448,-4.6894736,0.44535872,0.8715488,0.45501798
-1.5750854,5.7858877,5.8996124,39.344997,1.6592,-79.483,328.225,-27.08534,-5.478104,1.0993242,-0.49373832,0.008793262
-2.566584,6.7760396,5.912855,35.8192,-4.0138,-82.8258,330.1834,-32.407265,-3.6014078,1.4423114,-1.6229397,-0.22829172
-2.3327754,7.204452,8.170064,32.3666,-8.2472,-85.7538,332.3002,-38.782307,-4.7545695,0.36104,-0.41713035,-0.035339586
-2.3964462,7.442825,9.070433,32.0372,-11.333799,-88.2548,332.656,-39.51775,-4.511267,0.05237653,0.07644142,-0.046314508
-1.8446575,6.9529862,8.946907,34.6968,-12.346399,-89.548,331.11923,-39.4934,-5.4638247,-0.11572798,1.0757257,0.6313329
-1.1831098,5.9132295,9.848025,38.5032,-14.444799,-88.9014,328.389,-39.299915,-5.8052187,0.05808882,0.46942362,0.49463764
-1.261445,5.4272065,7.7728505,41.748398,-17.994999,-88.2914,325.6776,-38.540344,-6.6864505,-0.2217967,0.47370368,0.9208277
1.059958,4.9737296,8.660501,42.7732,-19.6908,-87.84,323.7801,-35.779903,-3.0455184,-0.4569332,0.09272894,0.44494238
0.57243866,4.210952,7.3513217,44.8106,-21.2036,-87.9742,322.6358,-33.398624,-1.1663926,0.038020864,0.70599234,0.28160086
-0.7282114,5.837737,6.516718,47.9582,-24.522,-86.290596,319.62238,-34.945274,-2.8726268,0.89111716,1.0880995,0.55662346
-1.235034,6.695834,6.0080247,51.8134,-32.208,-80.715195,317.6502,-38.071236,-4.272771,0.9955371,0.29101032,-0.1356627
-0.22550388,5.335329,7.0375314,53.423798,-36.6366,-80.3248,318.10736,-40.798447,-4.868537,0.9437768,-0.16359131,-0.34125516
-0.084620066,6.1096287,7.0403748,54.2168,-39.332798,-79.8978,319.09116,-42.90876,-5.2197757,0.20154555,0.122972436,-0.22369525
-0.64359134,7.5718875,7.8183403,55.997997,-39.418198,-78.141,319.04858,-42.482483,-6.1923804,-0.4723547,0.27742076,-0.105585754
0.40514383,8.139912,9.01387,57.035,-38.5398,-79.1902,318.8731,-40.60124,-6.4345794,-0.6749328,-0.26264873,-0.112230666
0.34169748,6.0523176,9.986365,55.8882,-37.624798,-80.9226,320.66446,-39.162514,-5.519136,-0.11096497,-0.941795,-0.2906939
1.3116485,4.848857,8.360028,52.2038,-37.6736,-83.4602,322.6796,-37.309685,-1.7918206,-0.11904211,-0.66139317,0.034706738
0.45669398,4.3742065,6.616676,50.1664,-38.674,-83.7774,323.3585,-35.914715,0.6854488,0.026479708,-0.15396535,0.072261296
0.7268647,5.755212,6.3002667,49.1782,-40.6992,-84.3142,323.1224,-36.32192,1.5434985,0.38142437,-0.19516711,0.35314605
-0.05626374,6.64391,5.112743,47.2994,-44.944798,-82.3744,323.194,-38.395058,2.222933,0.8110785,-0.21720022,-0.31987154
-1.4590415,6.506767,5.306524,47.0066,-46.9212,-81.0446,324.75772,-40.42343,1.6067957,0.3576759,0.015471478,-0.533741
-1.6231191,7.827618,6.2091374,48.6658,-48.0192,-79.8002,325.71912,-43.361877,-1.6862174,0.17145196,0.17679785,-0.30838037
-2.4578724,8.814927,7.162404,49.8248,-48.8,-78.848595,326.08893,-43.863194,-2.6792426,-0.095227025,-0.048629403,-0.10187194
-0.64366615,8.579397,7.4883146,48.982998,-49.5686,-77.5066,324.59433,-43.798374,-2.7850053,0.031758998,0.516321,0.54499906
-1.3637223,7.990274,9.9720745,49.0196,-51.1058,-76.4696,323.59048,-43.79459,-2.3912807,0.02776206,-0.06461715,0.07159514
-1.4255227,6.3916955,8.148441,49.8248,-50.7886,-74.7006,322.417,-43.81936,-2.904836,-0.13021688,0.9131336,0.48809263
0.19325697,5.556942,7.0874357,50.7642,-52.1672,-72.9804,320.08282,-43.597305,-3.1060357,0.1559305,0.08063821,0.3429039
-0.49163437,4.603526,4.6219316,50.690998,-53.655598,-70.8698,319.23648,-44.224995,-2.7523158,0.03790429,0.33644217,0.30298448
-0.54729956,5.266271,4.0417867,52.264797,-53.9362,-69.418,316.86734,-44.07259,-3.3975978,-0.13364759,0.849166,0.44900593
-0.5847838,6.0340614,4.1515455,54.2168,-55.022,-66.5144,314.6381,-43.82561,-4.1656876,-0.25573736,0.41293356,0.24942553
-0.33997664,6.891859,8.229095,53.7166,-54.8756,-66.612,314.26923,-42.946175,-3.5345848,-0.08323622,-0.5257138,0.20759092
0.35561377,7.8761005,7.75265,52.8992,-55.3148,-67.3928,314.79114,-42.96361,-2.4252508,-0.19731547,-0.087099925,-0.06933021
0.62705636,8.87568,9.473856,53.1798,-53.423798,-67.3562,315.11975,-41.143547,-2.6809309,-0.4802986,0.25763592,-0.103587285
-0.1743278,7.7724767,8.217573,54.717,-50.3006,-68.3566,315.9592,-39.247993,-3.4202406,-0.8421547,-0.15378216,-0.67325073
0.7993641,5.608118,10.235362,55.131798,-45.1888,-70.9674,318.00403,-36.69154,-3.625325,-0.6969326,-0.6868903,-0.4396298
1.4131027,4.1739163,8.656535,53.863,-42.334,-72.8462,320.29297,-34.24125,-1.8919715,-0.46154633,-0.43245193,-0.49575344
0.4849755,3.6963482,6.7871127,53.1798,-39.4426,-73.077995,321.67236,-31.205288,-0.0055947783,-0.29061064,-0.02524732,-0.2155515
0.22138883,4.3073187,5.3128085,53.314,-38.710598,-72.772995,322.1128,-30.927048,0.039656933,0.10746765,-0.23929995,-0.11361294
-0.2116624,5.14903,5.6741085,53.118797,-38.552,-72.956,323.53983,-31.16542,0.7810605,-0.10027316,-0.6144292,-0.4645607
-1.6152631,6.084714,7.5813146,52.216,-36.4902,-74.9568,325.73447,-32.26179,-1.0742989,-0.21766654,-0.107750766,-0.5175534
-2.9198787,7.1808844,8.588525,53.4604,-35.1848,-73.2732,326.64157,-32.378788,-2.4513888,0.0077940277,0.028095137,-0.15228331
-2.221445,7.9086466,9.7756,53.045597,-35.5752,-73.6758,326.96603,-32.58975,-1.8656268,0.010924961,-0.49886772,0.14229096
-2.0629787,6.943709,8.950798,52.337997,-35.7704,-71.833595,326.58954,-32.665318,-1.6739793,-0.083186254,0.5845354,0.19158652
-2.3127987,5.451597,10.321104,52.9236,-35.989998,-71.4432,325.5635,-31.92983,-1.8710512,-0.13239855,0.0967925,0.24153158
-1.1385926,5.0893993,8.429311,52.1428,-37.551598,-68.4542,324.01233,-31.471533,-4.5352592,0.105735645,-0.12407159,0.8328784
2.2191257,4.9797897,8.589049,47.738598,-40.198997,-67.649,323.51407,-32.592182,-1.2889013,0.72644335,-1.1205413,0.040535603
1.3594576,3.335123,7.1055417,43.1636,-42.1998,-67.9906,326.191,-33.946053,3.3400009,0.5474305,-0.96133,-0.41366634
0.6112696,3.484162,5.403339,42.2364,-42.7244,-65.4774,325.55542,-34.475082,2.8023534,-0.27247453,1.6456556,0.49648622
-0.5438579,4.7842884,5.4177046,45.7012,-42.8952,-60.2192,321.19275,-33.204445,-0.8820077,-0.55207694,1.6785637,0.5310764
-0.18338089,5.1592803,8.496648,45.0058,-42.8586,-59.048,319.07083,-32.035038,-1.5482618,-0.011624426,-0.59271246,0.27692112
1.235857,5.9969516,9.198224,41.980198,-43.456398,-59.1578,319.69443,-33.03664,0.28018486,0.4943878,-0.15894488,-0.0058621746
0.99733466,7.883358,8.9580555,40.357597,-43.981,-57.7182,320.18704,-33.827045,0.5617519,-0.19403465,-0.37970904,-0.0891317
1.6491561,7.277999,9.580772,37.9786,-41.48,-58.7308,321.26276,-32.75071,0.88322365,-0.5643176,-0.048013207,-0.6870402
0.18158524,5.947047,10.3074875,38.1372,-37.6126,-59.6214,323.60773,-30.653782,-0.62988585,-0.6574795,0.11569468,-0.846035
1.8187703,5.124564,10.548404,37.3564,-34.830997,-60.146,325.7525,-29.242743,-0.9652922,-0.20096266,-0.70750785,-0.6111817
1.6944214,3.7845595,8.427216,35.831398,-33.0986,-61.0854,328.14282,-28.243372,1.054376,0.020417687,-0.0046464396,-0.5873999
1.0791116,3.749245,5.6052003,36.063198,-32.256798,-60.572998,328.6926,-28.607243,-0.21251713,0.31532502,0.44179478,-0.11639414
0.1945289,4.7016134,4.34989,35.599598,-33.574398,-58.3648,328.5512,-30.31408,-1.3722111,0.585085,0.005012825,-0.25144064
-0.95274264,5.9605145,4.8767643,34.8676,-34.4772,-57.9012,329.88403,-31.544523,-1.1247414,0.09189624,-0.6126805,-0.46634263
-2.503063,6.1669397,7.706486,33.1474,-32.7814,-59.5238,332.65503,-33.020138,-3.158832,-0.21380283,-0.532442,-0.5004998
-2.826804,6.738331,8.702923,31.9884,-31.8664,-59.7922,331.48233,-32.884056,-2.5815122,0.06286849,-0.46108,-0.1268861
-2.6671407,6.872556,9.640477,29.524,-31.049,-60.5608,328.63553,-32.248924,-2.125964,-0.53907025,0.47008976,-0.043816425
-2.8095956,7.048829,10.957213,29.6094,-29.0604,-60.024,325.1102,-30.411098,-3.511428,-0.8106954,0.10038974,0.33314472
-1.8067993,4.2325745,11.810148,27.840399,-28.4504,-60.3046,321.5913,-29.111006,-2.5701356,0.18773946,0.07061256,0.47243798
-0.14821605,5.1183543,9.403676,26.364199,-30.2438,-59.572598,316.53247,-30.802921,-2.2602832,0.56338495,0.15248315,0.8435369
0.6338649,4.125359,10.073005,24.583,-32.1348,-58.5478,313.79745,-32.117653,-1.0927914,0.48874214,0.11179766,0.4412119
0.5738602,3.1702223,6.883704,24.3634,-34.8432,-57.4376,309.31866,-32.191273,-0.8789449,0.90512305,1.4143496,0.6855913
-6.733692E-4,4.1704,4.248062,25.351599,-37.3442,-53.6922,302.82083,-35.130566,-3.7204938,0.71338665,1.413317,0.6536991
-0.5090671,4.960412,4.85387,26.473999,-38.9058,-50.9106,298.5569,-37.07675,-5.3052387,0.26025057,0.34453598,0.32205322
0.39998132,4.9833064,6.880711,25.546799,-39.4792,-50.8252,296.36313,-37.49583,-5.080069,0.016986983,0.07842324,0.096975684
-0.3474585,6.2852283,6.9597945,25.5712,-38.9302,-52.0696,294.87872,-37.043274,-5.410305,-0.43601587,0.019884763,-0.15687978
-0.021996727,7.239243,9.26197,23.8632,-36.9904,-54.0826,294.6844,-35.32377,-4.9815,-0.67405015,-0.45077124,0.08052163
0.37072718,8.106842,9.587057,22.3748,-34.672398,-55.876,294.49133,-33.47923,-4.0256863,-0.6967161,-0.34841633,-0.5809548
-0.07294834,6.46831,12.137106,21.923399,-31.378399,-58.5356,295.97354,-30.426798,-4.534194,-0.84338707,-0.036905054,-0.6148455
0.96441436,5.540557,11.208156,21.7038,-29.341,-60.2436,296.71463,-29.52179,-4.808392,0.5305601,-0.2973888,-0.32886466
0.9759365,4.2161894,7.327604,20.3496,-30.8172,-59.9874,297.80832,-31.375486,-2.990406,0.86477065,-0.078273356,-0.3934485
0.5543325,3.713332,5.3889737,21.654999,-32.7936,-58.2794,298.289,-33.822666,-3.8913789,0.7788032,0.27768722,-0.39408135
-0.28909984,3.7544076,3.894169,22.081999,-34.586998,-57.34,298.75934,-36.1209,-5.1310396,0.8079975,0.16538993,-0.43919677
-1.7566707,5.3585973,3.4757824,22.3382,-35.453197,-57.169197,299.9058,-38.086872,-6.175713,0.21018894,-0.05514108,-0.46013075
-3.5772367,6.838738,4.8592567,22.7652,-35.1482,-58.4258,301.07382,-37.78926,-6.9852777,-0.38595423,-0.133531,-0.462379
-4.4505215,8.382549,7.5953054,21.3378,-33.342598,-59.841,302.8202,-39.729446,-11.145328,-0.72332907,-0.7544552,-0.078023545
-3.9155672,8.338481,10.963498,19.9348,-31.463799,-63.220398,304.75354,-36.989494,-9.593587,-0.7383009,0.14515543,0.44577506
-2.9323733,8.506598,12.615947,19.3858,-30.5,-64.659996,303.74152,-35.33158,-8.707165,-0.19944717,-0.26694545,0.6252542
-2.604667,6.334534,8.769437,18.6294,-31.658998,-64.196396,302.54306,-36.691814,-7.7784214,0.62363875,0.45278636,0.7863807
-0.95730656,5.7623944,8.353893,19.4224,-34.0868,-62.207798,300.9948,-38.273254,-7.152836,0.2644973,0.012423813,0.57212824
-0.45183074,3.4765306,9.325116,20.056799,-35.5142,-61.2562,300.6337,-36.945213,-5.3996215,0.49758536,0.48422894,0.5629686
-0.3609259,4.8796077,3.4999487,24.8758,-41.541,-53.7898,291.8488,-39.2472,-8.601777,0.9690741,1.1945846,0.7209808
-1.4466964,5.5151935,3.7794719,25.583399,-43.2612,-50.227398,289.7884,-41.04454,-8.925453,0.6587452,0.04849617,0.5162877
0.014440029,5.4904284,7.0943937,25.01,-44.896,-48.7024,287.98465,-42.602295,-7.510457,0.22372855,0.16275862,0.46058038
-0.31289223,6.10686,7.6797013,25.156399,-46.0794,-46.103798,286.2308,-41.978657,-6.375804,-0.06296841,0.8989278,-6.161945E-4
-3.005172,7.199888,7.856872,28.9872,-45.0058,-44.322598,282.42865,-41.199352,-9.382414,-0.2938082,1.0346404,0.48995787
0.65204585,8.140211,7.2450786,29.1458,-45.933,-42.0046,278.28528,-41.96688,-9.119216,0.4891252,0.16177604,1.0859178
-0.13639468,8.626608,6.4135427,27.0718,-47.3848,-39.2108,276.81372,-43.06186,-8.126035,-0.3030178,-0.070346095,-0.4051562
1.2140099,6.068478,9.375918,28.6822,-44.8472,-39.6378,276.66327,-40.58232,-8.61798,-1.0619196,-0.05319257,-0.29139337
1.6728736,4.8143654,9.424176,27.962399,-42.992798,-40.87,277.3378,-38.283386,-8.287694,-0.055041157,-0.62154037,-0.5441164
0.49687168,3.7440825,5.5724297,28.6334,-41.199398,-41.114,278.94537,-37.110924,-6.8333707,-0.0015987749,-0.3147255,-0.4655266
-0.80482584,4.741866,4.784737,28.06,-40.6992,-41.199398,279.78387,-36.857193,-5.918028,0.111980855,-1.1147791,-0.09655934
-2.009259,7.5743566,5.509956,25.388199,-40.2478,-42.0778,281.91577,-37.237,-2.9468248,-0.16074349,-1.4427778,-0.47255453
-3.7059999,7.8336034,6.8632035,24.765999,-38.613,-44.078598,284.82407,-39.880142,-4.852513,-0.37113225,-0.12778541,-0.7105888
-3.5157356,9.114876,6.2166195,26.205599,-37.3686,-42.1998,285.06442,-39.888695,-5.84618,0.45416865,0.033058003,-0.03041003
-2.5012674,9.185056,6.5366197,24.7904,-37.710197,-40.748,284.7069,-41.469444,-4.473252,0.18760623,-0.7648472,0.48419562
-2.172364,8.396091,7.7863927,23.3752,-37.8322,-40.1746,283.191,-41.374607,-2.7467265,-0.38219047,0.4424443,0.9133501
-2.5377042,7.742399,11.053656,21.691599,-37.4052,-39.0888,280.4621,-39.61176,-0.64680016,-0.65081793,-0.6791629,1.2434638
-0.49013796,5.379173,10.109218,19.0198,-37.1734,-40.5528,278.3991,-39.338303,3.6967573,0.40827048,-0.32591692,0.92945445
2.7820623,4.4906244,6.994286,16.6896,-37.6492,-37.6492,274.9885,-38.72944,5.6882553,0.5147389,1.0923296,0.86077374
1.6606033,4.35625,5.2582655,16.958,-38.125,-35.319,271.17407,-39.5764,4.3557982,0.15296611,0.42494103,0.24134839
2.0252702,3.8432174,6.327127,17.0068,-37.1002,-34.4162,269.8339,-39.920677,4.771633,0.2693103,0.12382178,0.3112282
0.9555858,4.46354,5.370494,17.7754,-37.3442,-31.500399,267.30856,-40.935543,3.1594243,0.5394866,1.8936656,0.100289814
-0.18083705,5.9111342,4.7515926,20.3618,-37.3808,-27.9868,262.19702,-42.395493,-0.40442738,0.36213917,1.4369655,0.7021952
2.1230583,7.58932,5.342362,20.2398,-37.6614,-24.8758,257.62665,-44.064533,0.09095425,-0.10636849,0.40687156,0.38800266
1.6011224,7.429657,5.531354,19.1906,-36.453598,-24.7538,257.06018,-45.20617,1.7449543,-0.7772877,0.038620405,-0.19541691
1.8145056,6.5036244,8.441581,20.3008,-33.916,-26.352,257.46045,-41.146015,1.2043124,-1.7711761,0.35381222,-0.23340447
0.9651626,6.9491706,11.021782,20.3618,-30.1462,-28.8042,258.1844,-35.18942,-0.1737893,-1.5718288,-0.45874846,-0.8467012
2.259004,5.184195,14.477064,21.813599,-26.6936,-30.1828,262.2052,-30.89766,0.41987082,-1.0047967,-0.87019986,-1.2308735
1.1578209,3.3567457,11.61951,22.3382,-23.729,-31.6712,265.79523,-29.234922,-0.7974033,0.10357063,0.5106587,-1.4423114
0.26373628,2.9388077,6.039374,24.9124,-21.777,-30.646399,268.56757,-29.91294,-3.8329232,0.8502651,0.033291157,-1.1084839
-0.042347442,2.860323,4.208184,25.6444,-20.800999,-29.743599,272.13153,-32.519623,-4.55053,0.93819773,-0.88355625,-1.1334981
-0.8539818,3.2102504,3.167828,25.986,-19.9226,-30.219398,276.8754,-34.061447,-3.860138,0.11053196,-1.3148091,-1.4006766
-1.9128175,3.4240825,4.248885,24.644,-16.1772,-31.890799,283.79858,-31.958939,-2.5166767,-1.3515643,-1.6653405,-1.4897418
-2.3844004,3.3990932,8.277578,23.167799,-11.2118,-35.7704,289.75497,-26.03382,-0.5768764,-2.3898852,-0.8946478,-0.9920564
-2.3262663,5.040767,13.007323,22.9238,-5.2948,-36.0266,292.5912,-17.73163,-2.3428407,-2.4065225,-0.078956164,-0.65248334
-3.3862243,5.4010196,14.759206,22.9604,0.4148,-35.599598,293.9403,-12.151302,-3.010195,-0.75678676,0.42092744,0.14020923
-1.9574844,6.605378,17.405172,22.7774,0.97599995,-35.014,292.41144,-11.108931,-2.2250254,0.4475737,-0.8606905,0.73828423
-1.2693758,4.88275,12.629339,21.411,-0.7564,-36.3194,290.90527,-15.192042,0.09469719,2.2453961,-0.47655147,0.79157674
0.83767134,5.4111953,10.335545,20.5936,-3.8918,-37.6614,289.79703,-22.482025,2.7683375,2.1788137,-1.2607006,0.20407695
2.0433764,2.9801826,12.449624,17.2874,-6.4537997,-39.467,291.85547,-29.137913,6.037764,2.0682817,-0.5062954,-0.5213838
1.465027,1.8269255,8.910545,18.580599,-8.9426,-39.04,292.90253,-32.365524,4.490796,2.0030317,1.2810683,-0.6615431
0.79001176,2.3013515,6.3147817,20.2642,-11.8706,-38.710598,292.78818,-39.00796,0.096544765,2.3773615,0.99671954,-0.8119445
-0.82899237,3.041534,4.7209167,22.740799,-14.4814,-36.6244,293.68985,-45.36988,-2.5146377,1.8781441,0.18154421,-0.5623524
0.024690205,4.4411693,6.3557076,23.753399,-16.6408,-36.2828,294.388,-49.4225,-4.1718473,0.99808514,0.9420115,-0.568481
-0.79644614,4.819603,5.0977044,25.7176,-17.1654,-34.5382,293.39038,-52.51979,-7.662928,0.71838284,0.8206045,-0.2466943
-0.42833763,7.5508633,5.17387,27.084,-17.8364,-33.3792,293.15802,-55.008,-8.917675,1.135813,0.5882492,-0.59169656
0.45609543,7.504027,4.608913,28.072199,-17.8242,-32.4032,294.26187,-55.663937,-9.541169,-1.4234092,-1.3313631,0.30016997
