@ HyperIMU - ianovir
@ Date:Tue Mar 31 16:31:49 EDT 2026, Sampling Rate:5ms

icm45631_accelerometer.x,icm45631_accelerometer.y,icm45631_accelerometer.z,mmc5616_magnetometer.x,mmc5616_magnetometer.y,mmc5616_magnetometer.z,orientation_sensor.x,orientation_sensor.y,orientation_sensor.z,icm45631_gyroscope.x,icm45631_gyroscope.y,icm45631_gyroscope.z
-1.0568156,6.661193,9.372776,9.0646,-18.7026,-3.721,203.48276,-36.971256,-8.62307,-0.07127871,-1.2315729,-0.5531595
-1.1182418,6.530709,9.361777,8.967,-18.605,-3.4282,203.82582,-36.89886,-8.438239,-0.109599344,-1.2770381,-0.6457052
-1.3059622,6.3772554,9.534759,8.967,-18.605,-3.4282,204.18846,-36.817677,-8.256449,-0.16602278,-1.2638315,-0.69023776
-1.916783,5.995904,10.5680065,8.3326,-17.0678,-4.0748,205.63301,-36.319527,-7.6758533,-0.4552345,-0.92104423,-0.69601667
-1.916783,5.995904,10.5680065,8.3326,-17.0678,-4.0748,205.63301,-36.319527,-7.6758533,-0.4552345,-0.92104423,-0.69601667
-2.39495,4.9783683,12.24305,8.2838,-16.1406,-4.9288,206.89352,-35.096306,-7.5101213,-0.70297796,-0.08759954,-0.34501895
-2.3408558,4.318317,12.270433,8.3814,-16.2626,-5.5144,207.07805,-34.679104,-7.567145,-0.6274692,-0.14300708,-0.23976627
-2.2717981,4.102315,12.06745,8.0154,-15.2987995,-5.5022,207.2359,-34.306797,-7.5727825,-0.49575344,-0.19122013,-0.15038475
-2.1781998,3.98051,11.67091,8.418,-15.323199,-6.283,207.36717,-34.017128,-7.5279555,-0.31269372,-0.24044907,-0.07963897
-1.6008232,3.719542,10.915016,8.1374,-15.006,-6.8564,207.48485,-33.83341,-7.430502,-0.1603438,-0.36840102,-0.029560681
-2.3604584,3.8235402,10.741586,8.1374,-14.9206,-6.954,207.55774,-33.781704,-7.335453,-0.020500956,-0.8208377,-0.00631183
-3.0668228,4.4856863,10.833538,8.1374,-14.9206,-6.954,207.79659,-33.726612,-6.986659,0.075292304,-0.9709393,0.05877163
-2.15336,4.9700637,10.183961,8.552199,-14.6644,-7.3322,208.0493,-33.748077,-6.5332594,0.19894755,-0.7451623,0.15884495
-2.15336,4.9700637,10.183961,8.552199,-14.6644,-7.3322,208.0493,-33.748077,-6.5332594,0.19894755,-0.7451623,0.15884495
-2.15336,4.9700637,10.183961,8.552199,-14.6644,-7.3322,208.0493,-33.748077,-6.5332594,0.19894755,-0.7451623,0.15884495
-2.15336,4.9700637,10.183961,8.552199,-14.6644,-7.3322,208.0493,-33.748077,-6.5332594,0.19894755,-0.7451623,0.15884495
-2.15336,4.9700637,10.183961,8.552199,-14.6644,-7.3322,208.0493,-33.748077,-6.5332594,0.19894755,-0.7451623,0.15884495
-2.15336,4.9700637,10.183961,8.552199,-14.6644,-7.3322,208.0493,-33.748077,-6.5332594,0.19894755,-0.7451623,0.15884495
-2.15336,4.9700637,10.183961,8.552199,-14.6644,-7.3322,208.0493,-33.748077,-6.5332594,0.19894755,-0.7451623,0.15884495
-2.15336,4.9700637,10.183961,8.552199,-14.6644,-7.3322,208.0493,-33.748077,-6.5332594,0.19894755,-0.7451623,0.15884495
-2.15336,4.9700637,10.183961,8.552199,-14.6644,-7.3322,208.0493,-33.748077,-6.5332594,0.19894755,-0.7451623,0.15884495
-2.15336,4.9700637,10.183961,8.552199,-14.6644,-7.3322,208.0493,-33.748077,-6.5332594,0.19894755,-0.7451623,0.15884495
-2.15336,4.9700637,10.183961,8.552199,-14.6644,-7.3322,208.0493,-33.748077,-6.5332594,0.19894755,-0.7451623,0.15884495
-2.15336,4.9700637,10.183961,8.552199,-14.6644,-7.3322,208.0493,-33.748077,-6.5332594,0.19894755,-0.7451623,0.15884495
-2.15336,4.9700637,10.183961,8.552199,-14.6644,-7.3322,208.0493,-33.748077,-6.5332594,0.19894755,-0.7451623,0.15884495
-2.15336,4.9700637,10.183961,8.552199,-14.6644,-7.3322,208.0493,-33.748077,-6.5332594,0.19894755,-0.7451623,0.15884495
-2.15336,4.9700637,10.183961,8.552199,-14.6644,-7.3322,208.0493,-33.748077,-6.5332594,0.19894755,-0.7451623,0.15884495
-2.15336,4.9700637,10.183961,8.552199,-14.6644,-7.3322,208.0493,-33.748077,-6.5332594,0.19894755,-0.7451623,0.15884495
-2.15336,4.9700637,10.183961,8.552199,-14.6644,-7.3322,208.0493,-33.748077,-6.5332594,0.19894755,-0.7451623,0.15884495
-2.15336,4.9700637,10.183961,8.552199,-14.6644,-7.3322,208.0493,-33.748077,-6.5332594,0.19894755,-0.7451623,0.15884495
-2.15336,4.9700637,10.183961,8.552199,-14.6644,-7.3322,208.0493,-33.748077,-6.5332594,0.19894755,-0.7451623,0.15884495
-2.15336,4.9700637,10.183961,8.552199,-14.6644,-7.3322,208.0493,-33.748077,-6.5332594,0.19894755,-0.7451623,0.15884495
-2.15336,4.9700637,10.183961,8.552199,-14.6644,-7.3322,208.0493,-33.748077,-6.5332594,0.19894755,-0.7451623,0.15884495
1.5326632,0.85435593,6.3706713,7.3932,-11.6388,-12.7246,207.98288,-36.303165,-3.3294458,-0.74219793,0.6212406,-0.568581
-0.6657377,1.8768296,6.633884,5.8072,-11.4924,-13.5054,208.04678,-35.652683,-4.135399,-0.7584688,0.98697704,-0.7713589
-1.4303858,2.4061728,6.781726,6.4049997,-11.4802,-12.139,208.06174,-35.433544,-4.4830523,-0.74959224,0.9582324,-0.79762214
-2.3452702,3.117475,6.777162,6.2098,-11.370399,-13.200399,208.12698,-35.00006,-5.170953,-0.7399163,0.7642144,-0.7679449
-2.9328222,3.6689644,6.828712,6.2098,-11.370399,-13.200399,208.1859,-34.78306,-5.465682,-0.71480227,0.3938815,-0.646005
-2.7858782,4.4938416,7.1885905,7.7957997,-11.858399,-13.7006,208.348,-34.35457,-5.904156,-0.75938475,0.40568912,-0.5980251
-2.8254573,4.4782047,7.2312374,8.7352,-10.858,-14.0666,208.50688,-33.916855,-6.286879,-0.6326985,0.24786006,-0.54030263
-2.598083,4.1904516,7.523255,8.235,-10.7238,-14.457,208.70872,-33.583153,-6.48478,-0.4228593,-0.17446631,-0.38422224
-2.534487,4.6384664,7.532233,8.0764,-9.9064,-14.0422,208.82503,-33.441517,-6.5251245,-0.38728654,-0.29840466,-0.3157414
-2.5635166,4.4125886,9.744475,8.0764,-9.9796,-15.311,209.08246,-33.190407,-6.471379,-0.22611007,-0.44472587,-0.17056929
-1.4603134,4.337246,8.527248,8.0764,-9.9796,-15.311,209.20258,-33.097046,-6.3992786,-0.030509954,-0.43321803,-0.0823036
-0.85203654,4.359243,8.765846,8.1862,-9.601399,-15.0182,209.40417,-32.890663,-6.306697,0.19146994,-0.28230035,-0.0831696
-0.8956559,4.3927617,9.048436,7.2834,-9.9064,-15.0182,209.52858,-32.898533,-6.2056384,0.22401167,-0.05349234,-0.11029881
-1.6980127,3.7291937,9.205032,7.7957997,-9.3452,-14.9084,209.62369,-32.71499,-6.2816234,0.33151263,0.030809725,-0.050761104
-1.6518495,3.8712745,8.975787,8.235,-8.6376,-15.3842,209.65057,-32.583855,-6.378496,0.4593147,0.053842075,0.07367688
-1.3925276,4.0570498,8.578799,7.8324,-8.5644,-15.189,209.6722,-32.208633,-6.594458,0.5249977,0.039769527,0.12582025
-1.305214,4.5040174,8.613066,7.8324,-8.5644,-15.189,209.60608,-32.494274,-6.5710406,0.58693355,-0.014505551,0.13762787
-1.2957869,4.918214,8.514155,8.0398,-8.3204,-15.86,209.5758,-32.663177,-6.5468936,0.63741153,-0.035089776,0.13481335
-1.1331308,5.5289598,8.401777,8.3326,-8.5034,-16.2504,209.5237,-33.032513,-6.489438,0.6778805,-0.056573316,0.117992915
-0.8498668,5.989844,8.391303,8.6498,-8.1374,-16.2504,209.50676,-33.22891,-6.457401,0.7187992,-0.09927393,0.059221286
-0.70853406,6.0561333,8.453327,8.5644,-7.9909997,-16.7262,209.49991,-33.429157,-6.423165,0.73485357,-0.08716654,0.0174866
-0.51826984,5.8073606,8.350677,8.5644,-7.9909997,-16.7262,209.6559,-34.048595,-6.3639107,0.7270262,-0.0053459033,-0.067281775
-0.51557636,5.6102133,8.244957,8.259399,-7.8933997,-16.4334,209.68564,-34.45777,-6.3883924,0.70699155,0.08063821,-0.084635146
-0.56982,5.4750905,8.246005,8.552199,-8.2716,-16.9336,209.8236,-34.657314,-6.422101,0.68733996,0.17684782,-0.07216137
-0.6817489,5.364583,8.078036,8.783999,-7.5518,-17.0068,209.796,-35.048477,-6.5286613,0.67003655,0.24880934,-0.0454152
-0.8728362,5.3897967,7.885079,9.0524,-8.0886,-17.3118,209.7636,-35.24239,-6.5936003,0.65678006,0.27650478,-0.006328484
-1.1228058,5.549984,8.0484085,8.4911995,-7.3566,-18.178,209.81125,-35.62579,-6.719983,0.6588451,0.26253214,0.05275957
-1.358036,5.71466,7.748385,8.783999,-7.4298,-18.0804,209.69775,-36.0152,-6.819315,0.68144447,0.22114721,0.10673488
-1.5389479,5.81993,7.591116,8.783999,-7.4298,-18.0804,209.71582,-36.41837,-6.8803563,0.709906,0.16976991,0.16514012
-1.7257705,5.8954225,7.447015,8.7108,-7.0394,-19.044199,209.57924,-36.84008,-6.899614,0.71801645,0.14600478,0.23873372
-1.8026094,6.0440874,7.2129817,8.7108,-7.0394,-19.044199,209.5597,-37.268932,-6.8838696,0.7087069,0.155281,0.3220865
-1.7910873,6.3355064,7.2696943,9.2964,-7.1858,-18.848999,209.35585,-37.69771,-6.845287,0.6778639,0.15051799,0.39101702
-1.5672295,6.655357,7.3067293,9.3208,-6.8441997,-19.1418,209.2759,-38.11851,-6.783267,0.65786254,0.11203082,0.41023564
-1.258976,6.8190603,7.3295493,9.0402,-6.4294,-19.52,209.056,-38.522045,-6.6885223,0.64182484,0.042117726,0.36936694
-1.2107179,6.903082,7.2100635,9.2842,-7.6127996,-20.2276,208.9667,-39.08952,-6.520183,0.58834916,-0.029177641,0.27030954
-1.3776386,6.867543,7.018677,9.1133995,-6.9296,-20.410599,209.02682,-39.42693,-6.4143553,0.4652768,-0.08440199,0.18352602
-1.5337106,6.826243,7.000571,9.5282,-6.8441997,-20.8864,208.97612,-39.7087,-6.3204284,0.31997147,-0.093811445,0.13269831
-1.7810616,6.7384057,7.316157,9.6258,-6.71,-21.6672,209.10591,-39.8912,-6.2412367,0.10733442,0.0023482007,0.08658365
-2.0859482,6.5607862,7.7401547,9.3208,-6.9052,-21.7648,209.03136,-39.982014,-6.2154374,-0.050094947,0.2073078,0.079872124
-2.621202,6.579117,8.0336685,8.9548,-6.1366,-22.143,209.02943,-39.945045,-6.3215547,-0.19731547,0.6357795,0.13449694
-2.8735657,6.6017866,7.911789,10.1504,-6.344,-23.5094,208.72559,-39.86165,-6.5628166,-0.3056491,0.8794261,0.20860681
-2.9183073,6.6171246,7.9925933,10.5408,-6.588,-23.607,208.23161,-39.64618,-7.046472,-0.46117994,1.0264634,0.29917073
-2.8046577,6.548366,7.990274,10.5774,-5.8072,-23.789999,207.88414,-39.443577,-7.3905597,-0.54434955,1.0076612,0.3541786
-2.6039937,6.3587003,8.494253,10.4798,-5.7339997,-24.0828,207.1119,-39.05962,-7.824229,-0.6364623,0.82018816,0.42380857
-2.4775498,6.1902833,9.032201,11.163,-6.1122,-24.961199,206.81093,-38.753815,-8.001879,-0.66452414,0.55096114,0.4578658
-2.4860044,5.844845,9.900099,10.98,-5.7339997,-26.1202,206.41023,-38.272995,-8.0772085,-0.59486085,0.2064085,0.4591648
-2.5724201,5.3758807,10.521619,11.4802,-5.6974,-25.925,206.13531,-37.97286,-8.003887,-0.5033976,0.022715926,0.45706642
-2.5965118,5.054609,10.77084,11.0044,-5.3192,-26.6936,206.0881,-37.716595,-7.8538675,-0.38495502,-0.0744263,0.46934035
-2.730213,4.5050645,10.983624,11.2972,-5.4778,-26.5106,205.80182,-37.451332,-7.557093,-0.20524272,-0.05425842,0.527629
-2.7481694,4.404583,10.878654,11.4924,-5.5388,-27.767199,205.74629,-37.360184,-7.354446,-0.13244851,-0.013739471,0.56588304
-2.6908584,4.3304377,10.534188,11.7852,-5.8072,-28.072199,205.48125,-37.3238,-7.1558857,-0.06276856,0.019251915,0.6296009
-2.3849242,4.3588686,10.242021,11.9072,-5.4778,-28.6456,205.21022,-37.315723,-6.8422713,-0.057422664,0.014422282,0.65974444
-2.1321862,4.3825116,10.072331,11.370399,-6.4172,-29.157999,204.9066,-37.309,-6.625578,-0.08774942,0.019851455,0.651201
-1.9327193,4.445359,9.988086,11.565599,-6.5025997,-30.8172,204.77896,-37.282127,-6.4135547,-0.12362193,0.030976264,0.6337144
-1.6486323,4.506187,9.942821,11.858399,-6.6368,-30.2316,204.52069,-37.183933,-6.127734,-0.21350306,0.04593147,0.5597877
-1.2506711,4.169951,9.893664,11.834,-7.3444,-31.805399,204.13367,-37.02324,-5.877937,-0.24865945,0.00836026,0.46710873
-1.1145009,3.9508069,9.838223,11.4436,-7.259,-31.610199,204.10335,-36.88841,-5.724206,-0.26351473,-0.0046630935,0.42011142
-1.0265139,3.776853,9.8276,11.8462,-6.9905996,-31.7932,203.92247,-36.721058,-5.588611,-0.27905282,0.018485835,0.37326396
-0.98094934,3.5620484,9.745,11.6144,-8.0154,-32.5008,203.92761,-36.526573,-5.4865785,-0.27297416,0.12820175,0.34776685
-0.9309704,3.379341,9.518971,12.139,-7.4175997,-33.367,203.73776,-36.21093,-5.4361134,-0.23616903,0.24987519,0.33769122
-0.96104753,3.2487822,9.253889,11.9194,-7.8812,-33.4768,203.77971,-35.0853,-5.467743,-0.173134,0.3801087,0.34165487
-0.96433955,3.1577275,8.706888,12.4196,-7.8812,-33.8672,203.77621,-32.51864,-5.6811357,-0.022416156,0.54758036,0.360607
-1.0057892,3.1690252,8.2454815,11.9072,-8.3326,-33.5866,203.43877,-32.489475,-5.8388357,0.062468797,0.5998237,0.36720195
-1.1376947,3.2333694,7.5214596,12.5904,-8.7962,-34.5626,203.2708,-32.577267,-6.0177584,0.15767917,0.6358794,0.38926837
-1.2312931,3.3014545,6.7667623,12.7612,-9.2842,-33.9892,202.88336,-32.717342,-6.19819,0.22113055,0.61414605,0.42763898
-1.3222727,3.4365025,6.11105,12.773399,-9.1378,-34.3796,202.69554,-32.88908,-6.342692,0.24411294,0.52946097,0.47113895
-1.3850456,3.5492544,5.7554364,13.054,-9.4794,-34.3918,202.50082,-32.97911,-6.394288,0.23858385,0.44046247,0.50199866
-1.4924855,4.045303,5.5870943,13.4566,-9.406199,-35.062798,202.50082,-32.97911,-6.394288,0.18380915,0.2826001,0.53968644
-1.3100772,4.2632504,5.6373725,12.9198,-10.4432,-35.7704,201.65625,-33.432816,-6.366518,0.13496324,0.17123544,0.5357561
-1.299453,4.3206363,5.62181,13.6152,-10.418799,-35.9656,201.55968,-33.54234,-6.2801332,0.104419984,0.14953542,0.5177199
-1.3965678,4.4431896,5.6026564,13.6152,-10.418799,-35.9656,201.26793,-33.62517,-6.192238,0.04896248,0.15243319,0.5042636
-1.4830583,4.5502553,5.6135054,13.493199,-11.2484,-36.2706,201.34077,-33.653698,-6.147891,-0.021483537,0.16144295,0.5096428
-1.4715363,4.595745,5.6493435,13.297999,-10.919,-36.661,200.90102,-33.68221,-6.024463,-0.089581355,0.14990179,0.5160379
-1.5592239,4.684929,5.672163,13.590799,-11.3582,-36.770798,200.83206,-33.650883,-5.927141,-0.17454958,0.09501053,0.5192854
-1.6906805,4.8110733,5.816264,13.5664,-11.8096,-36.8684,200.5564,-33.580555,-5.8081775,-0.2420645,0.021949846,0.5299772
-1.7021278,4.923676,6.245799,13.5664,-11.8706,-37.941998,200.52402,-33.468525,-5.648587,-0.29740542,-0.064117536,0.5565568
-1.4162451,4.8789344,6.7633204,13.7738,-11.8706,-38.1372,200.27951,-33.324394,-5.4442096,-0.31798965,-0.13291481,0.5773243
-1.0718541,4.7842884,7.3162313,13.481,-11.7364,-38.6252,200.2744,-33.16758,-5.2011437,-0.29973698,-0.15070118,0.5855846
-0.9151088,4.829404,7.5982985,13.4566,-12.285399,-38.8326,200.15016,-32.95455,-4.8259063,-0.24746037,-0.11434571,0.5969259
-0.5490952,4.994155,8.326285,13.3468,-12.4928,-39.3206,199.76224,-32.803074,-4.471332,-0.15050134,-0.09780838,0.609916
0.088660285,5.157933,9.320777,12.8466,-12.7123995,-39.8208,199.73729,-32.762074,-4.241549,0.04374981,-0.05407523,0.5341407
0.35755906,5.199757,9.423503,12.8466,-12.7123995,-39.8208,199.50288,-32.81458,-4.057307,0.2403658,-0.0027145864,0.41499865
0.2164508,5.3288198,8.977509,12.2244,-13.2858,-39.9306,199.54785,-32.97074,-3.9294038,0.38092476,0.030076953,0.29768854
-0.15337855,5.6343794,8.310574,12.7978,-13.8958,-40.2356,199.57974,-33.32191,-3.822157,0.42260948,0.034140505,0.20747435
-0.5256021,5.863774,7.727211,13.7006,-13.8104,-41.1018,199.48288,-33.56255,-3.7703235,0.34485242,-0.04439931,0.14358997
-0.81402856,5.99134,7.5665,13.176,-14.4204,-40.443,199.68292,-33.760822,-3.6977036,0.2576692,-0.13373086,0.11029881
-1.203236,6.0242605,7.5722613,13.163799,-14.6644,-41.6142,199.68736,-33.90941,-3.598085,0.12820175,-0.26111656,0.09984016
-1.4687679,5.906346,7.7575874,13.2492,-15.0426,-42.0168,199.70468,-33.96638,-3.5456498,-0.004929556,-0.36345482,0.12826838
-1.5289222,5.816638,7.9029603,12.9442,-15.2012,-41.4312,200.00554,-34.015,-3.4161668,-0.09669257,-0.40249157,0.17120214
-1.0301801,5.568689,8.497171,12.8466,-15.1036,-42.7976,200.31982,-33.905758,-3.0603497,-0.26090008,-0.46402776,0.27652144
-0.4961235,5.559561,8.995464,12.4318,-15.5672,-42.9074,200.33504,-33.661934,-2.5964146,-0.33937326,-0.45162058,0.31354305
0.3127426,5.534422,9.87481,11.9316,-15.8112,-43.5906,200.58371,-33.464474,-2.2921908,-0.32376856,-0.33211216,0.27760395
0.7229741,5.583129,10.282199,12.0292,-15.7258,-43.7858,200.55693,-33.276226,-2.0373952,-0.23750134,-0.18162748,0.2226294
0.8416367,5.6672997,10.330906,11.8218,-16.0064,-43.8834,200.77501,-33.131096,-1.860822,-0.1490358,-0.056107007,0.17051934
0.6619968,5.9002857,10.068216,11.6022,-16.3968,-44.1884,200.71158,-33.051563,-1.783617,-0.035689317,0.057739086,0.09764184
-0.06441899,6.3777046,9.4557495,11.6144,-16.323599,-44.5788,200.88922,-33.050312,-1.7900289,0.07619161,0.09685911,0.04090199
-0.526874,6.5563717,8.642395,11.1874,-16.9336,-44.005398,201.1182,-33.104755,-1.8110901,0.1030044,-0.001582121,0.03459016
-0.8327333,6.3643866,7.854104,10.5774,-17.1166,-45.079,201.13246,-33.150955,-1.7584721,-0.029260911,-0.36347148,0.018818913
-0.98581254,6.002114,7.984962,10.845799,-17.994999,-45.201,201.60449,-33.123306,-1.4671627,-0.35574406,-0.7327552,0.041851263
-0.88952076,5.7178774,8.654291,10.7604,-17.7144,-44.7984,201.81015,-32.908405,-1.1067989,-0.59720904,-0.8311131,0.10038974
-0.65870476,5.4283285,9.379808,10.3456,-17.8242,-45.0058,202.29607,-32.55412,-0.6755277,-0.7546883,-0.8278656,0.1560804
-0.1699135,4.928988,10.617087,9.5404,-18.117,-44.6154,202.45116,-32.09121,-0.23782574,-0.8813913,-0.724245,0.22969066
0.38621467,4.4323406,11.770195,8.845,-18.0194,-45.493797,202.81613,-31.583029,0.15150571,-0.8593748,-0.48779288,0.2759552
0.895207,4.0244284,12.372037,8.979199,-17.4338,-46.36,202.81708,-31.33678,0.30583382,-0.71350324,-0.20834035,0.2949573
1.2087725,3.7869537,12.393585,8.4424,-18.178,-46.567398,202.978,-30.730398,0.5844314,-0.4561338,0.045232005,0.3154916
1.4820108,4.0404396,11.805584,8.0764,-17.5924,-46.9456,203.00293,-30.390678,0.67714614,-0.114445634,0.12776875,0.33902353
1.7091607,4.2795606,11.159748,8.552199,-18.1292,-47.2506,202.80408,-30.3257,0.72348434,0.09048066,0.018269334,0.31231067
1.8854338,4.5410523,10.4358015,7.9421997,-18.226799,-47.0554,202.91914,-30.436697,0.8934227,0.27838668,-0.23138936,0.19135337
1.9064579,4.495039,9.756521,7.8202,-18.9344,-46.787,202.9319,-30.60859,1.0873721,0.36908385,-0.4254573,0.024148162
1.7285388,4.262053,9.151088,7.686,-19.6908,-47.579998,203.35394,-30.80874,1.3198241,0.36290523,-0.46161294,-0.13441366
1.5806968,4.1368814,8.831162,6.3684,-20.1544,-46.811398,203.54048,-30.783623,1.858911,0.32125384,-0.4161311,-0.22192994
1.3140427,4.0181437,8.21271,6.1243997,-21.3622,-47.518997,204.06018,-30.243967,2.9864159,0.19976358,-0.24835968,-0.35855857
1.1165959,3.9047184,7.807342,6.1243997,-21.3622,-47.518997,204.30548,-30.373919,3.0300484,0.09301206,-0.13441366,-0.43633232
0.7224504,3.7865796,7.156568,6.4904,-21.96,-47.4458,205.00896,-30.421616,2.9003904,-0.12317228,0.035822548,-0.5334745
0.530615,3.705551,6.9698954,6.527,-21.2402,-47.2262,205.70909,-30.240572,2.5937967,-0.39068395,0.17255111,-0.58546805
0.4635025,3.6409075,7.068581,6.0024,-21.886799,-47.336,205.94403,-29.998592,2.3302054,-0.54321706,0.24321362,-0.59121364
0.47397712,3.6424038,7.3075523,5.6974,-21.9356,-47.9338,206.60507,-29.53427,1.9010823,-0.5904309,0.26864412,-0.5817542
0.4895394,3.652205,7.4856215,6.6124,-21.6306,-48.0192,206.81836,-29.208996,1.6087589,-0.53004384,0.2437299,-0.5733773
0.45347676,3.626991,7.5462246,6.4416,-21.0084,-47.9094,207.37407,-28.918207,1.3365446,-0.45558423,0.2021784,-0.5680314
0.3434183,3.5943701,7.6157312,6.5392,-20.8986,-47.6166,207.60707,-28.68583,1.0954219,-0.29270902,0.092878826,-0.5542753
0.38501757,3.57791,7.6556096,6.1122,-21.4842,-48.0192,208.20045,-28.530617,0.9087157,-0.14294046,-0.02081738,-0.5497454
0.29972413,3.6348472,7.714342,6.5025997,-21.923399,-48.312,208.48256,-28.45838,0.7735718,0.006828101,-0.08683346,-0.5494456
0.16602293,3.7619643,7.6172276,6.7953997,-22.0698,-48.0314,209.27634,-28.50887,0.622654,0.17463285,-0.10860011,-0.560204
0.7198317,3.709217,7.449409,6.283,-22.3626,-48.128998,209.983,-28.623793,0.29469493,-0.19728215,1.0371219,-0.51074195
0.5850082,3.71004,7.648801,7.1735997,-22.3748,-47.5434,209.92801,-28.458645,-0.41307887,-0.45849866,1.4386309,-0.52966076
0.52156186,3.915268,7.726463,7.6738,-22.3626,-47.641,210.10785,-28.157625,-1.3817453,-0.612081,1.895764,-0.6125639
-0.35090017,4.362759,7.6107183,9.174399,-22.4846,-47.8362,209.94429,-27.832233,-2.4889278,-0.44649118,1.6499356,-0.80263495
-1.7820343,4.492495,7.3591776,9.4794,-22.1064,-47.6288,210.33414,-27.527212,-3.933023,-0.12383844,1.0029482,-0.85942477
-2.2604256,4.2443957,7.325509,10.492,-21.9966,-48.1168,210.88507,-27.527155,-4.5258994,0.29357505,0.24341348,-0.6147789
-2.2604256,4.2443957,7.325509,10.492,-21.9966,-48.1168,210.88507,-27.527155,-4.5258994,0.29357505,0.24341348,-0.6147789
-1.9702035,3.9124248,8.316858,9.6258,-23.4972,-47.274998,211.90218,-28.324015,-4.300192,0.56273544,-0.5892818,0.06265199
-2.2150106,3.4968064,9.244836,9.1866,-24.338999,-47.6898,212.42905,-27.699074,-5.197827,0.5603373,-0.44882274,0.19776513
-2.7742064,4.040739,9.757569,9.089,-24.3268,-47.2994,212.44681,-27.875017,-5.107677,0.61186445,-0.23778446,0.35356238
-2.0573676,4.771794,9.480515,8.479,-24.522,-47.1042,212.65616,-28.233538,-4.907459,0.693402,0.017736409,0.47198832
-1.1896938,5.2582655,8.707487,8.2472,-25.498,-46.9334,212.40524,-28.64936,-4.8004513,0.709473,0.22885796,0.53817093
0.10676643,5.2248216,7.87423,8.235,-25.7176,-46.1526,212.39279,-29.082869,-4.750798,0.6306001,0.17836332,0.52764565
1.2762592,3.3770964,7.07322,7.8933997,-26.84,-46.7626,212.0981,-29.455664,-4.6741705,0.4589816,0.028045176,0.37839338
2.2111201,1.953519,6.2712374,8.3814,-26.9254,-45.7012,212.30396,-29.636948,-4.596193,0.029111026,-0.16527335,-0.24722722
0.9067291,4.6220064,7.072397,7.9666,-27.4256,-46.2014,212.568,-29.549692,-4.535847,-0.39543033,-0.51120824,-0.43161926
-0.0013467384,6.0142345,7.405266,7.7836,-26.791199,-45.994,213.16232,-29.330061,-4.3608193,-0.59709245,-0.42092744,-0.1786964
0.70606506,5.57228,7.9555583,7.0759997,-27.0108,-45.994,213.34221,-29.168642,-3.9944391,-0.7940082,-0.080588244,-0.16520673
0.71796125,5.5769186,8.945785,7.381,-26.8156,-45.994,213.69315,-29.406046,-2.9985275,-0.85805917,-0.064550534,-0.23631892
1.0150667,4.6312838,10.0439005,7.3687997,-27.254799,-45.994,213.91432,-28.679468,-3.0739846,-0.7819508,0.11296344,-0.3917165
0.40806174,4.368745,10.370934,7.198,-26.5838,-46.567398,214.27525,-28.253828,-3.332317,-0.6242383,0.7059257,-0.4890752
-0.14036007,4.751293,10.786327,6.6856,-26.8034,-46.7748,214.27104,-27.944254,-3.950597,-0.36030722,1.4477905,-0.5313595
-1.5927427,5.64867,11.701885,7.9788,-26.9742,-46.189198,214.13118,-27.834776,-5.474182,0.17676455,2.0877502,-0.4955869
-2.0111294,6.455516,10.834661,9.9674,-27.096199,-45.1156,213.6991,-28.241255,-7.26513,0.9393302,1.9907246,-0.31026223
-2.086023,6.653636,9.673472,10.3456,-27.486599,-44.6398,213.31314,-28.794184,-8.362524,1.1427243,1.7383846,-0.23683518
-2.6477625,6.7231426,8.775797,10.3456,-27.486599,-44.6398,212.9547,-29.510477,-9.275855,1.246678,1.4425279,-0.17153522
-4.1094975,6.9235077,8.802133,11.0776,-29.1458,-43.1148,212.54959,-30.650555,-10.1670885,1.1852584,0.49140677,0.025480475
-4.2395325,6.9825397,8.746991,11.3826,-28.9628,-43.1148,212.39412,-31.34597,-10.386362,1.0567236,0.17113553,0.12751895
-4.004751,7.0580316,9.144354,12.2366,-30.0364,-42.455997,212.3176,-31.925549,-10.379034,0.83019716,-0.11447894,0.23445368
-3.763685,6.117709,9.834632,11.9072,-30.4634,-41.8704,212.22614,-32.53036,-10.098827,0.47721764,-0.32778215,0.30937958
-3.1019876,5.7012677,9.659257,11.3094,-30.4634,-41.3946,212.19969,-32.66454,-9.978642,0.31400937,-0.23605245,0.31106162
-2.368913,4.949264,9.16059,10.5896,-30.914799,-41.0164,212.06601,-32.89845,-9.721721,0.092629015,-0.017803025,0.25260642
-2.8724434,4.4145336,9.151312,10.1748,-31.268599,-40.430798,211.92735,-32.944214,-9.66976,-0.053425726,0.20286122,0.2025448
-3.1342344,3.9766195,9.351827,10.3822,-31.2808,-40.821198,211.61954,-32.912964,-9.751363,-0.050677832,0.32535067,0.21653406
-2.8350341,3.4047046,9.234361,10.1626,-31.414999,-39.954998,211.30843,-32.790207,-10.012373,0.024248086,0.5016156,0.22679287
-2.7329063,3.0505123,9.192088,9.4672,-31.4516,-39.954998,210.973,-32.364704,-10.461751,0.1532659,0.70424366,0.2115712
-2.9569888,3.046921,8.9499,9.6746,-31.231998,-39.467,210.6539,-30.429945,-11.955339,0.3121608,0.8370419,0.19475076
-3.5000985,3.2998085,8.769812,10.1626,-31.463799,-39.1742,210.54654,-29.530287,-13.085902,0.44479248,0.83056355,0.22194658
-3.8602762,3.61921,8.506374,10.065,-31.536999,-38.7838,209.90993,-29.19439,-14.513784,0.5203013,0.66753846,0.28163418
-3.7359273,4.008567,8.167295,10.248,-31.7566,-38.2104,209.64735,-29.183456,-15.432503,0.5099259,0.42569047,0.3389236
-3.276016,4.1870847,7.96102,10.321199,-32.329998,-37.4418,208.92052,-29.622057,-15.783132,0.41571477,0.1827766,0.35234666
-2.8694508,4.19943,7.825074,10.125999,-32.2202,-36.9538,208.39476,-29.903929,-15.755294,0.2699931,-0.032575037,0.33421057
-2.6425252,4.275296,7.532009,9.9186,-32.4032,-36.661,208.1763,-30.153406,-15.559286,0.10005666,-0.18609074,0.31337652
-2.5900025,4.3350015,7.289895,9.503799,-32.9034,-37.454,207.80986,-30.201408,-15.477855,0.00592879,-0.25403866,0.3016022
-2.4508395,4.4629416,6.8775687,9.1133995,-32.452,-36.9538,207.7009,-30.204744,-15.148495,-0.120807424,-0.31316003,0.2986378
-2.3992894,4.542848,6.5816603,9.0157995,-32.4032,-37.5394,207.31807,-30.150928,-14.922552,-0.17969564,-0.29420787,0.30380052
-2.268506,4.547786,6.2603884,9.1133995,-32.5374,-36.966,207.24117,-30.063694,-14.698445,-0.20759092,-0.24396305,0.31808957
-2.0516064,4.5543704,5.9148755,7.8324,-32.024998,-36.2706,206.82764,-29.979706,-14.50358,-0.21989816,-0.2024282,0.3359259
-1.9317467,4.68029,5.93358,7.8202,-32.1958,-36.173,206.65729,-29.841402,-14.2117405,-0.21220405,-0.19446765,0.3513308
-1.8691982,4.9518824,6.2452,7.2468,-31.7932,-36.2584,206.08183,-29.69042,-13.825881,-0.18054499,-0.21505187,0.3815576
-1.8113632,5.1327944,6.425439,6.954,-31.5492,-36.453598,205.57338,-29.609493,-13.471221,-0.14084208,-0.35895827,0.4146989
-1.7492636,5.185766,6.575226,6.2585998,-31.5248,-35.5752,205.10358,-29.553434,-12.9707155,-0.0940446,-0.5657165,0.4551179
-1.6682348,5.286547,6.719028,5.673,-31.049,-35.9534,205.04195,-29.52484,-12.540644,-0.054025266,-0.6971158,0.4772343
-1.5658079,5.369521,6.897695,5.368,-31.231998,-35.9656,204.65372,-29.514013,-11.817677,-0.020767419,-0.74071574,0.48764297
-1.4319571,5.451597,7.192556,4.6848,-30.7074,-35.563,204.26413,-29.545246,-11.084171,0.008876531,-0.6685377,0.4653101
-1.3016975,5.446584,7.5676227,4.3798,-31.0856,-35.6728,204.21535,-29.5806,-10.633298,0.04434935,-0.5770245,0.4216269
-1.080608,5.504943,7.8455744,3.4891999,-30.8538,-35.4654,203.8009,-29.747501,-9.830648,0.1271026,-0.53380764,0.3569931
-0.95117146,5.4816,7.776442,2.5864,-30.7806,-34.9896,203.44562,-29.88213,-9.450978,0.1876562,-0.5280287,0.3178231
-0.8102128,5.4581065,7.570017,2.684,-30.841599,-34.6968,203.10538,-30.10208,-8.909396,0.23961638,-0.53117627,0.2908105
-0.9263316,5.441721,7.252411,1.6958,-30.6342,-34.7822,203.12027,-30.331089,-8.387612,0.27587193,-0.5266131,0.2872965
-0.9682301,5.5428014,6.9997478,1.0004,-30.560999,-34.586998,202.78888,-30.585518,-7.8818893,0.27567208,-0.5296108,0.3111782
-0.75948566,5.5757217,6.7974377,1.403,-30.3536,-34.4894,202.44806,-30.757809,-7.527302,0.266196,-0.61064875,0.33244523
-0.55126494,5.71047,6.988974,0.8296,-29.8046,-33.6964,202.48369,-30.987247,-6.9042597,0.24251416,-0.7789864,0.3407722
-0.42541972,6.042217,7.4479127,0.109799996,-30.3536,-33.3182,202.22519,-31.42468,-6.04723,0.24516213,-0.9557176,0.35814223
-0.103175126,6.4213986,7.945607,-0.1708,-29.9144,-33.2206,201.90971,-32.407597,-5.0073495,0.27788705,-1.0909307,0.3629885
0.06344634,6.496367,8.159514,-0.7686,-29.646,-32.720398,202.0658,-32.61509,-4.3327136,0.32120386,-1.1522005,0.34313706
0.061501056,6.4742208,8.7006035,-1.5616,-29.6948,-32.818,202.23718,-33.04599,-2.824082,0.31174445,-0.9282054,0.15539758
0.5481225,6.5821095,8.273763,-2.3424,-28.9628,-31.732199,202.17604,-33.321125,-2.1793463,0.35058135,-0.6419414,0.08608403
0.7838018,6.6554317,7.7204027,-2.3424,-29.0726,-32.1348,201.98196,-33.56845,-1.835631,0.2953237,-0.42186007,-0.043017037
0.7472902,6.705486,7.8095117,-2.5254,-28.609,-31.732199,202.19716,-33.996887,-1.426175,0.12845157,-0.16392438,-0.1797789
0.6562357,6.772149,8.006734,-2.5254,-28.548,-32.1226,201.97264,-34.110634,-1.3696665,-0.008310298,-0.095243685,-0.25162384
0.4623054,6.8504095,8.25431,-2.623,-28.5968,-31.341799,202.04584,-34.1183,-1.3794122,-0.15871172,-0.12004135,-0.3057657
0.41644147,7.2262993,8.250494,-2.7937999,-27.816,-31.610199,202.06294,-33.92003,-1.441707,-0.40468988,-0.29091042,-0.36522013
-0.012345103,7.522956,8.288651,-2.5864,-27.7184,-31.610199,202.13338,-33.53558,-1.3598646,-0.56035393,-0.55897164,-0.39904422
-0.17238252,7.1473656,9.388114,-3.2574,-27.022999,-31.4028,202.34375,-33.043633,-1.0692192,-0.53392416,-0.81975514,-0.35063133
0.36182374,7.0346136,10.137499,-2.7328,-26.364199,-31.0978,202.76242,-32.743683,-0.7853324,-0.40707138,-0.8188059,-0.33609244
0.8096891,6.7485814,11.081264,-3.416,-26.1568,-31.6712,202.79147,-32.5198,-0.5066064,-0.21225402,-0.62553734,-0.41852927
0.8467992,6.3876553,11.719169,-3.3062,-25.8396,-32.3544,203.36816,-32.350796,-0.2694878,-0.014105857,-0.35477814,-0.48899195
1.1867758,6.066608,11.588236,-3.7819998,-25.376,-31.658998,203.28313,-32.383095,-0.3019397,0.24937557,0.030143568,-0.53830415
1.0214263,5.305551,10.688166,-3.1842,-25.156399,-31.268599,203.26651,-32.779457,-0.80722904,0.5440165,0.4478568,-0.52399844
0.89947164,5.0310407,9.959056,-3.3672,-24.765999,-32.1348,203.36594,-33.10355,-1.1816907,0.64334035,0.47172186,-0.47758403
0.8255507,4.8267107,8.910246,-2.7572,-24.6806,-31.2564,203.0128,-33.464283,-1.5189097,0.65736294,0.32771555,-0.38993454
0.9578303,4.7367783,8.012421,-2.562,-24.583,-31.049,203.11833,-33.455875,-1.1745521,0.5321422,0.121873274,-0.29126015
1.1869255,4.7003417,7.649175,-2.4522,-24.4,-31.049,202.83934,-33.849506,-1.2851737,0.29459092,-0.05688974,-0.20421018
1.339481,4.7668557,7.829638,-2.44,-24.2292,-31.2442,202.56607,-34.014107,-1.2536352,0.002631317,-0.108083844,-0.13761121
1.4576199,4.8739963,8.146945,-2.3302,-23.911999,-30.5488,202.6541,-33.89697,-0.9670017,-0.28196725,0.06285184,-0.10863342
1.5497967,4.7909474,8.532785,-3.1354,-23.973,-30.841599,202.24625,-32.984943,0.7391639,-0.494138,0.35842535,-0.12786868
1.5497967,4.7909474,8.532785,-3.1354,-23.973,-30.841599,202.24625,-32.984943,0.7391639,-0.494138,0.35842535,-0.12786868
1.3453169,4.173767,9.465252,-2.6718,-22.3748,-31.3906,201.58408,-31.723064,0.5688599,-0.66212595,0.9104856,-0.28103465
0.75364983,3.9084594,9.415049,-2.6596,-22.143,-31.8786,200.98132,-31.09017,-0.17556004,-0.5548248,0.86327183,-0.35532773
0.048707042,3.7757308,8.669479,-1.037,-21.7038,-31.768799,200.46802,-30.105423,-0.71515685,-0.36177278,0.6546317,-0.38075823
-0.47726914,3.6878936,7.891962,-2.2082,-21.0816,-32.3422,200.47185,-29.901384,-1.1385282,-0.14948545,0.44985527,-0.35516116
-0.74519527,3.6722565,7.4426003,-2.2082,-21.0816,-32.3422,200.07442,-29.786901,-1.4846326,-0.005762251,0.32037118,-0.32157025
-1.0375872,3.6929064,6.640767,-1.9764,-20.3008,-33.001,199.72807,-29.82203,-1.8199347,0.23183902,0.107401036,-0.2599841
-1.1133786,3.7980268,5.872977,-1.3054,-21.069399,-32.9156,199.83148,-29.9807,-1.9202924,0.40820387,-0.0595044,-0.19530034
-1.1730092,4.064606,5.263802,-1.5128,-21.0938,-33.2084,199.53877,-30.336803,-1.948233,0.48596093,-0.15188362,-0.13423048
-1.127669,4.422689,4.9993176,-1.0857999,-20.447199,-33.0986,199.69238,-30.75462,-1.8771145,0.47360376,-0.1880892,-0.076358154
-0.85338324,4.8023195,4.9543514,-1.7933999,-20.8254,-32.818,199.35301,-31.127516,-1.7869552,0.38993454,-0.16147625,-0.059704248
-0.5684733,5.0340333,5.025654,-2.2814,-20.3008,-32.6106,198.96832,-31.328794,-1.7410342,0.30611542,-0.14109188,-0.069530055
-0.36780924,5.211878,5.258789,-1.7689999,-20.0812,-32.415398,199.04471,-31.489271,-1.6987166,0.19488399,-0.12490429,-0.09557676
-0.26919806,5.3511906,5.626,-1.2566,-19.947,-33.4768,198.70064,-31.590136,-1.6766053,0.11354633,-0.11296344,-0.12487098
-0.37334582,5.5472903,6.32795,-1.647,-19.459,-32.4032,198.84833,-31.679092,-1.6590701,0.06310164,-0.08172071,-0.17395003
-0.46125793,5.560758,7.043741,-2.0496,-19.6054,-33.0864,198.59055,-31.733065,-1.7112564,0.11049866,0.048679363,-0.22684284
-0.56398416,5.5885906,7.83091,-1.4274,-19.337,-33.659798,198.32806,-31.832119,-1.898529,0.17589854,0.23595253,-0.27315736
-0.6290017,5.7393503,8.399608,-1.8299999,-19.3004,-32.6838,198.37105,-31.940945,-2.1291187,0.22687614,0.48479518,-0.28326628
-0.7034464,5.9375453,8.724471,-1.403,-18.4952,-32.8668,197.94002,-32.14039,-2.6619844,0.28619736,0.78030205,-0.24797665
-0.8333318,6.052467,8.407614,-1.3054,-18.5074,-33.062,197.30438,-32.492638,-3.63726,0.3277988,1.004014,-0.16497359
-0.9851392,6.2423573,7.924359,-0.90279996,-18.617199,-33.8428,196.76993,-32.689598,-4.1711087,0.34595156,0.9655934,-0.09139663
-1.1341783,6.390648,7.5953054,0.121999994,-18.0072,-33.2328,196.38536,-33.078995,-4.9061055,0.35224673,0.8698168,-0.0240982
-1.1005846,6.653262,7.3620205,-0.28059998,-18.0438,-33.7208,195.68796,-34.309093,-5.605806,0.32253617,0.727326,0.0667322
-1.1791444,7.001843,7.6685534,0.3416,-17.3972,-33.8062,195.22324,-34.675877,-5.922498,0.288812,0.6549315,0.113296516
-1.6354642,7.356334,8.271218,0.23179999,-17.5802,-33.818398,194.81999,-34.970192,-6.3163238,0.26231566,0.6136631,0.15889491
-1.540145,7.4883895,8.584635,0.23179999,-17.5436,-33.1352,194.34898,-35.15038,-6.549792,0.25373888,0.57870656,0.17962901
-1.2833669,7.4131217,8.612392,0.45139998,-17.1532,-34.196598,194.07465,-35.328724,-6.761039,0.23896688,0.5848518,0.16109322
-1.3043162,7.25069,8.650849,0.6832,-16.5676,-33.501198,193.6181,-35.49567,-6.9875674,0.21641749,0.6799623,0.1232722
-1.4157962,7.171532,8.780136,0.8662,-17.0556,-34.3796,193.33224,-35.656223,-7.2670684,0.20759092,0.7832831,0.08113782
-1.5070752,7.1125746,8.729334,0.95159996,-17.1654,-34.77,192.8664,-35.813652,-7.605656,0.21841596,0.87138224,0.055340927
-1.4701147,6.991817,8.431406,1.4762,-16.592,-34.5626,192.54247,-35.98509,-7.9993334,0.23382083,1.010126,0.03087634
-2.298359,7.1705594,5.734637,1.7933999,-16.4212,-34.953,191.95515,-36.55421,-8.614659,0.115994446,1.5554081,0.026579631
-2.6850224,7.3104706,5.2302084,2.4034,-16.104,-34.5504,189.61589,-40.504086,-12.179049,-0.31925535,0.71526855,0.2703928
-2.64679,6.9213376,6.310068,2.4156,-15.786799,-35.135998,189.24944,-40.583096,-12.320968,-0.42062768,0.34385318,0.276205
-2.7802668,7.539416,8.778266,3.2208,-15.7014,-36.0022,188.93228,-40.366646,-12.350472,-0.43496668,-0.18324292,0.28616405
-2.6894367,7.677382,10.23828,3.4282,-15.359799,-36.295,188.75076,-40.13906,-12.156325,-0.32023793,-0.35617706,0.27010968
-3.2381577,7.269395,11.682881,3.8551998,-14.8108,-36.465797,188.76753,-39.96145,-11.901381,-0.111164816,-0.43946323,0.24626128
-2.3545477,6.7427454,11.396475,2.7694,-14.7132,-37.0514,188.75446,-39.8555,-11.49119,0.050761104,-0.28298315,0.19316864
-1.9619734,6.4297037,10.658088,3.355,-15.030399,-36.8684,188.67596,-39.878307,-11.3144045,0.07727412,-0.02827833,0.1290511
-2.8642135,5.826664,9.724349,2.9768,-14.4814,-37.7346,188.51074,-39.96009,-11.3735285,0.038920175,0.42205992,0.083319485
-3.5730467,5.743091,9.191191,2.8669999,-14.5668,-37.7346,188.22377,-40.015663,-11.52128,0.0017320061,0.42200994,0.12951742
-3.9126494,5.6194158,8.7954,3.3672,-14.823,-37.9298,188.01154,-40.05862,-11.666247,-0.036588628,0.42439145,0.18287653
-4.0907927,5.371167,8.44203,3.3672,-14.6644,-38.320198,187.53871,-40.08006,-11.831825,-0.119275264,0.39767858,0.27610508
-4.2599583,5.268815,8.275858,4.1967998,-13.9567995,-38.8814,187.19173,-40.048405,-11.886452,-0.20802392,0.24004938,0.3589416
-4.2778397,5.2973957,8.251691,4.1967998,-13.9567995,-38.8814,187.19173,-40.048405,-11.886452,-0.22422817,0.19634953,0.3724979
-3.5881603,5.227141,7.9263787,3.5135999,-13.5542,-39.1742,186.53137,-39.615444,-11.605828,-0.4098859,-0.3130601,0.4601807
-3.0865002,4.946271,7.8625584,3.1109998,-13.847,-39.3694,186.67361,-38.20168,-12.500776,-0.49343854,-0.40628865,0.40888667
-2.896161,4.913575,7.790433,2.3424,-13.163799,-39.162,186.74261,-37.79601,-12.616444,-0.5322421,-0.41941193,0.37248123
-2.3786395,4.9142485,7.4608564,2.9524,-12.7002,-39.344997,186.59044,-37.299026,-12.20155,-0.5758754,-0.34433612,0.3163076
-2.0040216,4.908338,7.0893807,2.2691998,-12.3952,-39.735397,186.56116,-36.97287,-11.960521,-0.59354514,-0.22722588,0.2604171
-1.7348984,4.7669306,6.6898484,1.9764,-12.2244,-39.528,186.36903,-36.648735,-11.794789,-0.5903976,-0.09209609,0.20764089
-1.5792005,4.655151,6.488586,1.2688,-12.4562,-39.833,186.33606,-36.489647,-11.74081,-0.562419,-0.018485835,0.17643146
-1.5214404,4.561852,6.079701,1.5006,-11.7852,-39.2352,186.09784,-36.190823,-11.676409,-0.5201847,0.097941615,0.14317362
-1.5446342,4.5554175,5.773767,1.7933999,-12.0292,-40.6016,185.9925,-35.919403,-11.678806,-0.48827583,0.19555014,0.13842726
-1.5791256,4.6195374,5.514071,1.7933999,-12.0292,-40.6016,185.92516,-35.797176,-11.703138,-0.46359473,0.25643682,0.14012596
-1.7117794,4.6891937,5.298892,1.7933999,-11.9438,-40.6992,185.5967,-35.582188,-11.788062,-0.40439013,0.3758953,0.16014394
-1.8705449,4.777929,5.236194,2.1227999,-11.1874,-40.1868,185.38994,-35.40037,-11.911358,-0.3723147,0.42687288,0.1865737
-2.0081367,5.090447,5.4610243,2.3302,-11.224,-40.967598,184.71046,-35.141373,-12.169449,-0.26557982,0.40921974,0.3160578
-1.5577275,5.0397944,5.40925,2.3302,-11.138599,-41.0652,184.26357,-35.060764,-12.2515335,-0.2335044,0.33550957,0.3522634
-1.3157635,5.1235914,5.793519,3.05,-10.711599,-41.9314,183.98756,-34.992332,-12.286931,-0.19268568,0.21688381,0.35286292
-1.3626001,5.210905,6.1738234,2.6474,-10.6505995,-42.029,183.5975,-34.943142,-12.265554,-0.13856049,0.12983385,0.35675994
-1.391555,5.3461027,6.519561,3.2452,-10.7238,-42.224197,183.28052,-34.91596,-12.168592,-0.05472473,0.07405991,0.3652368
-1.3860183,5.491925,6.6852098,3.3184,-11.3582,-42.6268,182.9442,-34.94415,-12.073819,0.027412327,0.01620425,0.35262978
-1.0993127,5.2684407,6.4018707,3.2696,-10.2968,-42.602398,182.55405,-35.03836,-11.911539,0.071645096,0.012823506,0.3108618
-1.1065701,4.8333697,6.952238,3.5623999,-10.4676,-42.7,182.35559,-35.15069,-11.773993,0.11369621,-0.077540584,0.20540926
-0.86168814,5.1788077,7.4504566,3.2452,-10.919,-42.614597,182.16132,-35.278736,-11.58215,0.18627393,-0.30511618,0.1136629
-0.8777742,5.3138556,7.6470056,3.6355999,-11.0044,-43.005,182.08646,-35.377155,-11.402196,0.2219799,-0.32663304,0.046964012
-1.0282348,5.412392,7.7803326,3.233,-11.2118,-43.0172,182.17192,-35.4875,-11.236139,0.25470483,-0.2362523,-0.014522205
-1.1135283,5.479954,7.622839,3.0377998,-10.9922,-43.7858,182.12798,-35.62007,-11.132849,0.2781535,-0.15078445,-0.05057791
-1.226355,5.5700355,7.4723034,3.1232,-11.4436,-44.090797,182.20102,-35.767395,-11.101429,0.29400805,-0.060070634,-0.10593549
-1.5380502,5.7501245,7.3745155,3.3306,-11.2606,-44.090797,182.23663,-35.84367,-11.106964,0.28701338,-0.027628828,-0.14200784
-1.9828479,6.082619,7.4685626,3.843,-10.906799,-44.468998,182.23436,-36.06097,-11.156071,0.24534532,-0.06395099,-0.16177604
-2.3546226,6.2636805,7.6199956,4.0138,-11.6022,-44.3836,182.23119,-36.17491,-11.166325,0.18349272,-0.17370023,-0.14232427
-2.3958478,6.3759837,7.845051,4.1358,-11.0654,-44.468998,182.36029,-36.25212,-11.128575,0.13609572,-0.2931254,-0.12580359
-2.4251018,6.4429464,8.085817,4.0382,-11.1142,-45.1522,182.42549,-36.29835,-11.030023,0.10921631,-0.38605416,-0.12077412
-2.316839,6.4925513,8.307655,3.9162,-11.651,-45.1644,182.62646,-36.316765,-10.875958,0.08345272,-0.49057406,-0.115178406
-2.1204398,6.422895,8.24997,3.9039998,-11.955999,-45.957397,182.761,-36.317486,-10.679969,0.045082122,-0.55625707,-0.13313131
-2.0900633,6.3277254,8.426094,3.8186,-11.59,-45.5548,183.01466,-36.294685,-10.470277,0.0064950227,-0.5792228,-0.15954441
-2.0235493,6.1492825,8.803405,3.4282,-11.5168,-45.4572,183.19685,-36.249226,-10.255716,-0.016537327,-0.6112982,-0.17881298
-1.4545523,6.282011,8.940996,3.7331998,-11.5046,-45.6524,183.49747,-36.180653,-10.030412,-0.045998085,-0.6547816,-0.2030111
-1.1110592,7.0313964,8.220865,2.806,-12.0292,-46.2502,183.88652,-36.055904,-9.687748,-0.08286983,-0.5744265,-0.19696574
-1.1110592,7.0313964,8.220865,2.806,-12.0292,-46.2502,183.88652,-36.055904,-9.687748,-0.08286983,-0.5744265,-0.19696574
-1.1110592,7.0313964,8.220865,2.806,-12.0292,-46.2502,183.88652,-36.055904,-9.687748,-0.08286983,-0.5744265,-0.19696574
-2.1065235,6.9756565,8.104148,2.928,-11.6388,-47.3116,184.38293,-35.82611,-9.350555,-0.14024253,-0.31184438,-0.2128036
-1.8574516,6.2095118,12.083311,2.623,-11.8218,-47.214,184.91537,-35.713017,-9.056567,0.20137902,-0.14765352,-0.26206586
-1.443554,5.866767,12.570606,3.2208,-11.9925995,-47.6044,185.09973,-35.85379,-9.186952,0.22957408,0.3994106,-0.2652301
-1.3129203,5.7355347,12.004752,3.2208,-11.9925995,-47.6044,185.01692,-35.917683,-9.33033,0.1936183,0.80415046,-0.24609475
-1.6267104,5.47928,11.391013,3.5014,-12.382999,-48.2998,184.8851,-36.046146,-9.7513275,0.1495021,0.9559674,-0.21921535
-2.118195,5.059547,10.476204,3.8186,-11.9925995,-48.0924,184.59183,-36.16017,-10.24907,0.09604307,0.8336445,-0.13481335
-2.2287774,4.6421328,9.139791,4.8677998,-13.2369995,-48.8976,184.29378,-36.259365,-10.795117,-8.326952E-5,0.42497435,0.0019151991
-2.1101894,4.5823526,8.518794,4.4774,-13.054,-48.4096,184.20103,-35.760956,-11.029713,-0.114795364,0.09624292,0.110565275
-2.0878935,4.7602715,8.450484,5.5875998,-12.675799,-48.982998,184.1967,-35.579514,-11.059822,-0.22446133,-0.20942286,0.1979483
-2.0499604,4.954127,8.750059,5.2704,-12.9198,-48.4096,184.10672,-35.412758,-10.937524,-0.28085145,-0.41586465,0.24333021
-2.057068,5.1277065,9.203386,5.6974,-12.5904,-49.0806,184.13503,-35.244244,-10.656851,-0.31292686,-0.5653501,0.27262443
-1.8000656,5.2787657,9.992575,5.0508,-13.4688,-48.519398,184.1751,-34.95281,-10.095126,-0.29873773,-0.59181315,0.29200956
-1.4915876,5.181127,10.162937,5.1605997,-13.4566,-49.8858,184.21506,-34.77945,-9.755472,-0.2524399,-0.37774387,0.26817784
-1.2619687,4.9134254,10.092981,4.4652,-13.3712,-49.4954,184.14816,-34.707905,-9.630624,-0.193585,-0.02584686,0.22784208
-1.3021464,4.5262384,9.915661,4.1602,-13.481,-49.593,184.06555,-34.600204,-9.513412,-0.13952641,0.23430379,0.196616
-1.380781,4.1507974,9.777396,4.2578,-13.5664,-49.4954,183.8145,-34.544605,-9.566651,-0.09257906,0.4167473,0.17395003
-1.5283237,3.8394766,9.539173,4.5506,-13.5786,-49.9834,183.59602,-34.488026,-9.719022,-0.033957314,0.50033325,0.16873737
-1.6601545,3.6917093,9.153707,5.3436,-13.883599,-49.7882,183.49971,-34.37555,-9.800743,-9.992343E-4,0.44034588,0.19020425
-1.749114,3.6373162,8.90456,5.1484,-13.7982,-49.690598,183.45624,-33.117367,-9.954757,0.008260337,0.33114624,0.228375
-1.7990181,3.591527,8.702399,5.1484,-13.7982,-49.690598,183.52116,-31.807482,-10.118962,0.0082936445,0.18279326,0.27457294
-1.816002,3.5939212,8.564733,6.4294,-14.310599,-50.385998,183.39719,-31.618767,-10.139703,0.0066116,0.014438936,0.32704937
-1.8992753,3.5777605,8.334665,5.0141997,-14.4814,-50.5812,183.27045,-31.471947,-10.067378,0.00980915,-0.18590754,0.39767858
-1.9422961,3.6275148,8.107216,5.917,-14.6278,-50.776398,183.05627,-31.464487,-9.863694,0.01803618,-0.30413362,0.45325267
-1.9862896,3.6902878,7.8367457,5.917,-14.6278,-50.776398,182.99121,-31.478588,-9.720919,0.027628828,-0.38259014,0.50156564
-2.00881,3.7496192,7.5676227,5.3924,-15.262199,-50.6056,182.85765,-31.5149,-9.385218,0.037204824,-0.41673067,0.5485463
-1.9715502,3.9786396,7.162479,5.3924,-15.262199,-50.6056,182.62628,-31.562952,-9.023408,0.056456737,-0.36157292,0.6083005
-1.9119945,4.086079,6.907197,5.2826,-15.4452,-50.703197,182.4316,-31.624146,-8.677465,0.06629919,-0.22189663,0.64030933
-1.8891748,4.179154,6.8067904,4.4895997,-15.164599,-49.8248,182.09886,-31.70027,-8.391493,0.070695825,-0.06423411,0.6630919
-1.9569606,4.2374377,6.914754,4.4895997,-15.164599,-49.8248,181.78938,-31.78445,-8.17142,0.070346095,0.07737404,0.68680704
-1.9511995,4.2136455,6.966229,3.6843998,-15.420799,-50.508,181.32446,-31.87642,-8.013834,0.06674885,0.17541558,0.7050597
-1.9155859,4.1709237,7.0383544,3.7819998,-15.4696,-49.922398,181.12344,-31.922905,-7.9540305,0.060470328,0.2693103,0.7261103
-1.8638113,4.166435,7.1558948,4.6604,-15.786799,-49.9346,180.5922,-32.016586,-7.8759522,0.050394718,0.36278868,0.7408823
-1.9090766,4.234445,7.2925887,4.148,-16.2016,-50.5324,180.10196,-32.10792,-7.8501725,0.033940658,0.5022984,0.76266557
-1.9472342,4.221202,7.299472,4.941,-16.3724,-51.020397,179.83722,-32.15226,-7.8605456,0.02294908,0.61541176,0.78255033
-1.9805286,4.2305546,7.275231,4.941,-16.3724,-51.020397,179.17012,-32.242813,-7.930012,0.00980915,0.7488095,0.8100626
-1.9339164,4.1925464,7.291317,4.514,-17.1166,-51.2278,178.54352,-32.333282,-8.049511,-0.0051460564,0.82253635,0.8411887
-1.9600282,4.1650133,7.288773,5.7218,-16.958,-51.1302,177.7818,-32.42336,-8.192874,-0.015271631,0.8344439,0.86550343
-1.9298013,4.1412206,7.241338,5.5022,-17.4216,-51.239998,177.1003,-32.508904,-8.323919,-0.028211715,0.80488324,0.91113514
-1.7999908,4.1180267,7.2987237,6.1854,-17.763199,-51.5328,176.30649,-32.591946,-8.424204,-0.0368884,0.73998296,0.9696403
-1.8632127,4.1668086,7.4592104,6.3561997,-18.239,-50.6666,175.60837,-32.67135,-8.481216,-0.03792094,0.6985314,1.0001336
-1.9991584,4.2656446,7.770606,6.6612,-18.239,-50.861797,174.80667,-32.75665,-8.4980755,-0.026929364,0.64758706,1.0439833
-1.8800468,4.3656774,8.121357,6.6612,-18.178,-51.3498,174.09845,-32.847218,-8.465795,-0.0021316998,0.54306716,1.1038541
-1.9593548,4.3766007,8.606707,7.2468,-18.5928,-51.4596,173.66028,-32.89051,-8.428106,0.030260146,0.38234034,1.1558477
-2.2203977,4.410419,8.919449,6.6368,-18.8002,-51.362,173.0022,-32.847645,-8.365715,0.06431738,0.30841365,1.2083907
-2.0094087,4.462867,9.117195,6.7344,-18.9344,-50.776398,171.86797,-32.964767,-8.09443,0.12936753,0.35964108,1.3049167
-1.7754502,4.3552775,9.187749,6.6368,-18.970999,-51.166798,171.49733,-33.039623,-7.985851,0.18699004,0.4678415,1.3587921
-1.5907974,4.169577,8.990526,6.8198,-19.2272,-51.2766,170.72975,-33.113037,-7.815284,0.22464453,0.5590383,1.3848721
-1.398139,3.9539492,8.660875,6.8808,-20.288599,-51.2034,169.93906,-32.41106,-7.773343,0.24624464,0.63945997,1.4094366
-1.2417676,3.851597,8.336535,6.8808,-20.288599,-51.2034,169.5097,-32.46588,-7.7164235,0.24859284,0.70963955,1.4303206
-1.142109,3.875614,8.022147,6.9662,-20.447199,-51.008198,168.48058,-32.71318,-7.6206203,0.22509418,0.74887615,1.4634951
-1.1614871,3.8753896,7.8726587,6.9417996,-21.2524,-50.934998,167.54984,-32.958763,-7.524701,0.19500057,0.7299573,1.4848622
-1.2996026,3.9367409,7.776816,7.6127996,-21.6794,-51.2278,166.50499,-33.18319,-7.403705,0.13930991,0.6803786,1.519419
-1.3974656,4.134786,8.022595,7.3932,-22.2162,-51.0448,166.03206,-33.28179,-7.326503,0.08738304,0.60815066,1.5615034
-1.3208512,4.3299885,8.231864,7.381,-22.545599,-50.6666,165.08974,-33.45216,-7.1344604,0.0631183,0.53682196,1.593812
-1.1510124,4.5408278,8.207772,7.5762,-22.740799,-51.057,164.05707,-33.597145,-6.8905706,0.03607236,0.519835,1.6308336
-1.1510124,4.5408278,8.207772,7.5762,-22.740799,-51.057,164.05707,-33.597145,-6.8905706,0.03607236,0.519835,1.6308336
-1.1893197,4.7842135,8.243835,8.064199,-23.1068,-51.6548,164.05707,-33.597145,-6.8905706,0.00912634,0.6556975,1.6511015
-1.4798411,5.0555067,8.525827,7.9544,-23.18,-51.4596,160.94864,-33.960087,-6.3438506,7.8273355E-4,0.92742264,1.6636418
-1.5173253,5.143718,8.552687,8.0398,-23.729,-51.667,159.78206,-34.080536,-6.258192,0.010042304,1.0207012,1.6764153
-1.436147,5.2562456,8.456395,8.113,-24.0828,-50.2152,158.658,-34.205635,-6.2088904,-0.005212672,1.1274693,1.6819777
-1.2431892,5.1984854,8.365266,8.3935995,-24.4488,-50.6056,156.83008,-34.379204,-6.228337,-0.055890504,1.2644144,1.6577963
-1.0773159,4.9438767,8.558598,8.5034,-24.3512,-50.508,155.56056,-34.46475,-6.3061275,-0.10428675,1.327616,1.6183265
-0.8728362,4.75047,8.836849,8.4668,-25.1686,-50.9228,154.37683,-34.508545,-6.413447,-0.16062692,1.37896,1.5496625
-0.92573303,4.6240263,9.189021,9.0646,-25.119799,-50.4348,153.12431,-34.493183,-6.552355,-0.2004131,1.4463916,1.4830469
-1.2669067,4.5299044,9.6327715,9.3574,-25.3028,-50.7276,151.96906,-34.46188,-6.7466435,-0.22119716,1.4931059,1.4180633
-1.8354548,4.536339,10.100314,9.3574,-25.351599,-50.0444,150.15538,-34.469727,-7.1274433,-0.22491099,1.5100095,1.3626891
-2.1199908,4.5781627,10.156054,10.3578,-25.4004,-50.239597,149.02547,-34.47716,-7.403084,-0.23212212,1.5318096,1.3408226
-2.2780828,4.571204,9.863138,11.346,-25.5956,-49.7516,147.81859,-34.482998,-7.7055707,-0.2783034,1.6297178,1.3362926
-2.2839937,4.448801,9.345093,11.138599,-25.705399,-49.849197,145.98595,-34.45895,-8.229947,-0.35386217,1.7058429,1.3346772
-2.257358,4.207286,8.8706665,11.2606,-25.3272,-49.654,144.83038,-34.22464,-8.698332,-0.42677295,1.7363361,1.3382745
-2.211644,4.019715,8.556278,11.7486,-25.583399,-49.849197,143.77547,-32.807346,-9.712519,-0.50149906,1.7397002,1.334111
-2.3116765,3.8973114,8.415918,12.248799,-25.3394,-48.9708,142.69774,-32.197754,-10.359657,-0.56540006,1.6863744,1.3345441
-2.5986066,3.894992,8.497994,11.4558,-25.1808,-48.677998,140.88362,-31.45627,-11.290334,-0.56992996,1.6076181,1.3527967
-2.9145665,3.9811084,8.789788,12.749,-25.4858,-48.9708,140.40796,-30.937357,-11.802275,-0.5289946,1.5368723,1.3800424
-3.2746694,4.221127,9.152434,12.8466,-25.4126,-49.166,139.05789,-30.786667,-12.234453,-0.42182675,1.4036244,1.4354501
-3.1515176,4.321833,9.038635,13.542,-25.546799,-49.068398,137.92392,-30.791721,-12.502296,-0.32298583,1.3310966,1.4843959
-2.952724,4.256741,8.78036,13.7494,-25.254,-48.763397,136.5561,-30.887606,-12.729396,-0.16985318,1.385505,1.520285
-2.8507462,4.178256,8.552089,13.529799,-25.778599,-48.4828,135.3782,-31.040316,-12.982202,-0.06898047,1.5187362,1.5223334
-2.7744308,4.124461,8.207772,13.822599,-25.7542,-48.287598,133.89543,-31.241997,-13.321143,0.005196018,1.6332318,1.508644
-2.8106432,4.1657615,7.856199,13.6396,-25.546799,-47.6044,132.64345,-31.530952,-13.676383,0.025480475,1.696983,1.4943882
-2.8657846,4.2665424,7.4194813,14.8962,-26.3764,-47.518997,131.08537,-31.857138,-14.073326,-1.8319295E-4,1.7535563,1.4774845
-3.0625582,4.4434886,7.266701,15.1036,-26.168999,-47.128597,129.16917,-32.296597,-14.657883,-0.11800957,1.6606108,1.4913905
-3.0904655,4.4253078,7.1589622,15.7014,-26.1446,-47.3238,128.2518,-32.430943,-14.83432,-0.2004131,1.5557078,1.512824
-3.1366286,4.3833346,7.135993,14.798599,-26.1446,-46.543,127.00956,-32.63053,-15.112477,-0.32894793,1.4371321,1.5420017
-3.1353567,4.451494,7.2611647,14.884,-26.669199,-46.4576,125.416626,-32.770683,-15.329254,-0.46246228,1.3174571,1.5761756
-3.2210991,4.483367,6.2105594,15.884399,-26.5838,-45.6768,124.21,-32.82139,-15.472567,-0.6297008,1.4107189,1.6111155
-3.5428948,4.642806,7.0144873,15.689199,-26.3032,-45.2864,122.62334,-32.80504,-15.675206,-0.7767548,1.5647509,1.6584791
-3.7735612,4.79581,8.140585,15.981999,-26.5838,-45.7744,121.96055,-32.759792,-15.8004875,-0.876495,1.3561941,1.6960337
-3.7259765,4.7382,8.800487,15.615999,-25.8884,-45.6646,120.67576,-32.6162,-15.96844,-0.91944546,1.1385442,1.7640649
-3.3343,4.6315084,9.044471,15.9942,-26.2178,-45.6646,119.055984,-32.455666,-16.00393,-0.9267232,1.1463549,1.8006035
-2.83264,4.6074915,9.179444,16.0186,-25.7664,-45.3718,117.785706,-32.279118,-16.016287,-0.90237516,1.2761054,1.7939919
-2.765228,4.6579943,9.24925,16.4212,-25.6078,-46.0428,116.137665,-32.143757,-16.10062,-0.8472341,1.3968129,1.7443633
-2.8203697,4.905944,9.108292,16.3968,-26.010399,-45.3718,114.82424,-32.030697,-16.251905,-0.7949242,1.482364,1.6855251
-3.106776,4.941333,8.686314,16.8116,-25.7176,-45.1644,113.16062,-31.962774,-16.469435,-0.7892452,1.5594383,1.6422249
-3.208829,4.861277,7.8542533,17.385,-26.4984,-45.2864,111.844475,-31.886995,-16.734747,-0.85587746,1.6876235,1.6181101
-3.2937481,4.8283567,7.517943,17.3118,-25.8396,-44.6886,110.20688,-31.79553,-17.074474,-0.98596114,1.7297578,1.5880331
-3.532869,4.784438,7.6232877,17.3118,-25.8396,-44.6886,108.869576,-31.623726,-17.429691,-1.1049366,1.6455557,1.5771081
-4.4416184,4.5088058,8.127791,17.0068,-25.864,-44.8838,107.191666,-31.364428,-17.763815,-1.2736906,1.4211277,1.603288
-5.281684,4.697349,9.15251,17.8364,-25.01,-44.6642,105.93476,-30.991661,-17.920847,-1.4137334,1.0308434,1.800437
-6.3598976,4.4048824,10.265813,17.9462,-24.729399,-44.3592,104.359985,-30.555325,-17.758886,-1.5164046,0.1763815,2.145739
-4.424859,4.9098344,10.183587,17.9462,-24.729399,-44.3592,103.20535,-30.04014,-17.214993,-1.4997841,-0.20337749,2.3426049
-2.5329158,4.5219736,10.60968,17.3606,-24.7172,-45.2376,101.956215,-29.525595,-16.463552,-1.4547852,-0.21310337,2.3678188
-2.203264,4.1046343,10.868254,16.592,-23.8388,-44.835,100.7952,-29.021063,-15.70913,-1.3670025,-0.091213435,2.3040512
-1.8335096,3.8483052,10.89272,15.8722,-24.2414,-45.14,99.60252,-28.583895,-15.089535,-1.1979153,0.20755762,2.2210147
-1.3606547,3.540725,10.488324,16.2016,-23.8144,-45.713398,98.99547,-28.399837,-14.8442745,-1.0711625,0.42031124,2.1581461
-1.1662006,3.1518168,9.993174,15.786799,-23.911999,-45.5182,97.77016,-28.096573,-14.476279,-0.9578327,0.58608425,2.0799394
-1.2312182,2.819322,9.745,15.786799,-23.911999,-45.5182,97.77016,-28.096573,-14.476279,-0.921244,0.6254374,2.0543091
-1.4000843,2.136451,9.35467,15.1036,-23.6192,-46.0062,97.05969,-26.316793,-13.579654,-0.8321124,0.6632251,1.9943718
-2.06051,2.0795887,9.093028,15.1036,-23.6192,-46.0062,96.59498,-25.782015,-13.403297,-0.7819508,0.5772077,1.9938555
-2.212018,2.6901848,9.026664,14.9084,-23.6192,-45.9086,96.4117,-25.238337,-13.274066,-0.76276547,0.57579213,2.025681
-2.2084267,3.3535285,8.525678,14.6888,-23.851,-45.0302,95.243004,-24.882486,-13.097101,-0.7496755,0.7653635,2.0759926
-2.0379894,3.546187,8.228198,14.6888,-23.851,-45.0302,94.5954,-24.816559,-13.058765,-0.7541554,1.0808051,2.0997076
-1.8796728,3.5863645,8.265458,14.603399,-23.729,-45.9086,94.286545,-24.74562,-13.060935,-0.7603507,1.1911706,2.0911143
-1.7944542,3.5412488,8.21503,14.603399,-23.729,-45.9086,93.58982,-24.68748,-13.110368,-0.77718776,1.1987981,2.0774746
-1.7597382,3.433809,8.079458,14.700999,-23.8388,-46.3966,92.19492,-24.565199,-13.23411,-0.79833823,1.1566137,2.075343
-1.6697313,3.079542,8.064494,15.1036,-23.594799,-45.713398,91.504166,-24.494669,-13.285281,-0.8464347,1.0527599,2.0745769
-1.5021371,2.6292076,8.304962,14.700999,-23.5704,-44.7374,90.52105,-24.30849,-13.315016,-0.8944479,0.8398231,2.079823
-1.3053637,2.5004444,8.820763,14.700999,-23.5704,-44.7374,89.87492,-24.193783,-13.275446,-0.9129837,0.5442663,2.0877502
-1.2288989,2.5465329,9.161712,14.518,-23.3752,-45.994,89.26482,-24.024006,-13.159422,-0.8955637,0.33262843,2.108501
-1.097966,2.7241526,9.486126,14.518,-23.3752,-45.994,89.187355,-23.446821,-12.724842,-0.8507814,0.13143262,2.1329823
-1.5195699,3.3986442,10.033351,14.518,-23.3752,-45.994,88.102715,-22.968493,-12.077227,-0.75310624,-0.14272396,2.1912708
-3.03076,4.4696007,10.478523,14.408199,-23.484999,-46.189198,87.53588,-22.876883,-11.790743,-0.6111983,-0.33081317,2.2893457
-3.4525137,4.747253,10.554988,13.627399,-23.2288,-45.798798,86.72773,-22.764254,-11.0999365,-0.4536024,-0.39459762,2.442728
-3.1054292,4.6256723,10.476204,13.627399,-23.2288,-45.798798,86.114296,-22.756567,-10.725728,-0.34691748,-0.41974503,2.5191696
-1.763554,4.138228,10.358738,12.8954,-23.7656,-45.322998,85.4875,-22.77734,-10.336951,-0.1956001,-0.4583654,2.573628
-0.08439561,3.556437,9.996316,12.6026,-23.7778,-45.1278,84.56949,-22.88367,-9.521157,-0.06684878,-0.43653214,2.5614705
0.8417863,3.1875055,9.654918,12.6026,-23.7778,-45.1278,83.95365,-22.942629,-9.060862,-0.01040869,-0.3632383,2.5061462
1.1774983,3.0870986,9.267731,11.4924,-23.911999,-45.14,83.95365,-22.942629,-9.060862,0.027162518,-0.22680953,2.4334185
1.2297219,2.9877393,8.800337,11.4924,-23.911999,-45.14,83.18124,-22.743092,-7.165383,0.041301683,0.09959035,2.335044
1.3943232,2.6981156,8.634239,11.1751995,-24.570799,-45.445,82.56802,-22.800097,-6.817994,0.039553024,0.284915,2.243514
1.559972,2.5686042,8.565705,10.6872,-24.2902,-44.7618,81.948296,-22.871416,-6.591705,0.033058003,0.5105088,2.096377
1.6051626,2.6093805,8.568399,10.6872,-24.2902,-44.7618,81.019806,-23.006681,-6.3024907,0.021033881,0.6317326,2.017554
1.757344,2.667365,8.611495,10.2846,-24.2658,-44.1762,80.42389,-23.064304,-6.216018,-0.012873468,0.79800516,1.9075716
1.9678842,2.8211179,8.61546,11.0654,-24.522,-44.5666,79.83667,-23.110195,-6.1508183,-0.06569965,0.9290381,1.7832668
2.1536593,2.7909658,8.700903,11.0654,-24.522,-44.5666,78.9802,-23.13595,-5.983016,-0.10576895,0.9901246,1.6918535
2.08101,2.7646296,8.897303,10.845799,-25.0832,-44.774,77.980255,-22.965176,-5.4581676,-0.16529,1.0125741,1.5256475
2.1084688,2.6179848,9.007885,10.845799,-25.0832,-44.774,77.533745,-22.777285,-5.0288897,-0.18872204,0.9927726,1.4566004
2.1208887,2.548927,9.167025,11.0532,-25.0466,-44.3836,77.38192,-22.489037,-4.4053555,-0.20685816,0.914799,1.3560609
2.084452,2.5345619,9.286136,10.3456,-24.924599,-43.1148,77.05503,-21.968094,-3.2852142,-0.21030551,0.84988207,1.3070151
2.0516813,2.5800517,9.538874,11.626599,-25.314999,-43.3222,76.34874,-21.248869,-1.9321073,-0.1927856,0.72217995,1.2181165
2.0851252,2.572046,9.739912,11.626599,-25.314999,-43.3222,76.18221,-21.13503,-1.8101535,-0.17270099,0.6593947,1.1749164
2.0645502,2.618733,9.95337,11.3216,-25.5712,-44.395798,75.80459,-21.070148,-1.8107923,-0.14617132,0.6065352,1.1363626
1.9658641,2.6974423,10.231696,11.3216,-25.5712,-44.395798,75.43535,-21.031475,-1.8458158,-0.11289682,0.55572414,1.1010396
1.7862989,2.8894274,10.774132,11.2484,-25.0588,-43.2124,74.95437,-21.003168,-1.8950297,-0.038653713,0.4561005,1.0670156
1.7206829,3.0172179,11.064579,10.9312,-25.3394,-43.127,74.62577,-21.00486,-1.9020652,0.023531968,0.3908172,1.0552413
1.5774049,3.1138837,11.60522,11.040999,-25.0954,-43.700397,73.99555,-21.066183,-1.8736824,0.22534399,0.2793193,1.0358063
1.653346,3.144335,11.843517,11.528999,-25.4858,-43.0294,73.300316,-21.351917,-1.7520167,0.48083153,0.24661103,1.0159382
1.8410662,3.00188,11.897013,10.125999,-25.4736,-43.3222,73.006096,-21.501667,-1.7109716,0.63771135,0.27105895,0.98496187
1.4200609,3.1110406,11.599982,10.8946,-26.23,-43.151398,72.636215,-21.895336,-1.6388396,0.8028181,0.3863706,0.95137095
1.4139258,3.3745525,11.228955,11.4802,-26.4618,-42.9562,72.34458,-22.12526,-1.6298517,0.8514975,0.5255972,0.9482067
1.4918121,3.5987096,10.620006,11.0776,-26.5838,-41.785,71.615906,-22.884583,-1.723122,0.90712154,0.66475725,0.91328347
1.6261119,3.5093012,10.17835,10.5652,-26.791199,-41.8948,70.989075,-23.419228,-1.8655491,0.9083539,0.7426309,0.8755291
1.6204256,3.505186,9.742381,11.224,-27.645199,-40.1624,70.55237,-23.957287,-2.0375316,0.87329745,0.7863807,0.8284985
1.4540286,3.6077626,9.161338,11.224,-27.694,-41.0408,69.951996,-24.433746,-2.1417928,0.7993208,0.8251344,0.7831166
1.5291467,3.6983683,8.707936,11.6144,-27.816,-40.4552,69.42276,-24.741297,-0.85783976,0.72717613,0.864321,0.74344695
1.4826094,3.7659297,8.455273,11.1142,-27.962399,-39.284,69.14464,-24.93424,-0.85664433,0.66903734,0.88930184,0.7064253
1.3881881,3.8379054,8.210765,11.2972,-28.3162,-39.3938,68.73704,-25.323717,-1.0475353,0.6080674,0.894348,0.66653925
1.3152398,3.8732197,8.011747,11.2972,-28.3162,-39.3938,68.18446,-25.677906,-1.3138977,0.5608036,0.87607867,0.623339
1.2502222,3.9443724,7.854478,10.797,-28.3284,-39.3938,68.072334,-25.85542,-1.4484702,0.53100973,0.85049826,0.5981749
1.1636568,3.9952493,7.7340946,11.9804,-28.499199,-38.5154,67.550735,-26.174952,-1.7278079,0.49567017,0.7977887,0.57953924
1.089661,4.050989,7.6878567,12.151199,-29.121399,-38.722797,67.30125,-26.325426,-1.8581567,0.47222146,0.75010854,0.56866425
0.96800566,4.0623617,7.6651864,11.9316,-29.548399,-38.1494,66.97275,-26.616344,-2.0794396,0.42600688,0.638594,0.55347586
0.89917237,4.1111436,7.761104,11.9316,-29.548399,-38.1494,66.5304,-26.874557,-2.2530615,0.39188305,0.55149406,0.54756373
0.8001123,4.1813235,7.908123,11.236199,-29.475199,-37.856598,66.29218,-27.116915,-2.3580909,0.3665025,0.42247626,0.53505665
0.6154595,4.320262,7.950171,11.5412,-29.4264,-37.271,65.92724,-27.336996,-2.411398,0.33284494,0.31542495,0.5140894
0.55455697,4.395455,7.927726,11.6144,-29.9266,-36.7952,65.761925,-27.537613,-2.4142709,0.25643682,0.2242948,0.48497835
0.55725044,4.4765587,7.8224554,11.6144,-29.9266,-36.7952,65.45927,-27.692432,-2.4011378,0.19308537,0.21640083,0.4486895
0.4782418,4.4808235,7.6580787,11.1264,-29.6094,-36.9904,65.35428,-27.804382,-2.3870254,0.09331183,0.21683384,0.39887768
0.3784335,4.4826937,7.5866265,10.919,-29.768,-36.6,65.10214,-27.842957,-2.398986,-0.036322165,0.24795999,0.35239664
0.38561612,4.37892,7.6538887,11.9194,-29.8778,-36.2096,65.02767,-27.81485,-2.4362667,-0.16105992,0.29985356,0.31662405
0.28281507,4.3989716,7.865476,12.2122,-30.1828,-37.1002,64.79092,-27.710447,-2.5128508,-0.27453962,0.3361757,0.27976894
0.22064064,4.3394904,8.321273,12.2976,-30.2682,-37.002598,64.72513,-27.557867,-2.6096594,-0.33497664,0.36755168,0.24377985
0.14155717,4.4052563,8.724022,12.2976,-30.4634,-37.2954,64.509575,-27.3739,-2.7396276,-0.3448191,0.40567246,0.19624962
0.09015666,4.4469304,8.899023,12.3952,-30.451199,-37.1978,64.47662,-27.196625,-2.8808162,-0.31857255,0.40362403,0.18196057
0.023044191,4.4311438,8.957007,12.1268,-29.7558,-37.2832,64.28123,-27.028608,-3.036,-0.26641253,0.39288226,0.16465716
-0.076539636,4.4296474,9.05517,12.7978,-30.2316,-36.8074,64.27259,-26.897535,-3.182893,-0.21438572,0.37894294,0.14843625
-0.185401,4.469825,9.063624,12.8344,-29.548399,-37.3686,64.182434,-26.766886,-3.4074028,-0.09071382,0.3578591,0.12746899
-0.38606504,4.6037507,8.999281,13.0296,-29.7192,-37.4784,64.0318,-26.740725,-3.549805,-0.011774311,0.3279154,0.11954173
-0.32591072,4.535965,8.959402,12.5171995,-29.8168,-37.1856,63.95841,-26.743504,-3.6177025,0.04824636,0.33129612,0.12638648
-0.3171569,4.482245,8.930971,12.5171995,-29.8168,-37.1856,63.981533,-26.783075,-3.745658,0.09144659,0.31644085,0.13079977
-0.33675942,4.4283752,8.862811,12.932,-29.585,-36.6,63.836155,-26.846983,-3.8681288,0.14294046,0.24541195,0.13927661
-0.3788824,4.4820204,8.895657,12.809999,-29.951,-36.697598,63.816475,-27.000269,-3.9544485,0.1963995,0.0691137,0.16675554
-0.39683893,4.3769746,8.980576,12.3342,-29.511799,-36.307198,63.87936,-27.20887,-3.8511653,0.2624822,-0.23070654,0.17759724
-0.4400842,4.386402,9.023073,12.0658,-28.792,-35.8924,63.86749,-27.284187,-3.763049,0.27324063,-0.43450037,0.19311868
-0.3012953,4.369044,8.977882,11.2727995,-28.6456,-35.8924,64.110214,-27.516785,-3.2745218,0.23265505,-0.85138094,0.21611772
-0.093972415,4.3759274,9.023971,11.2727995,-28.6456,-35.8924,64.228386,-27.63907,-2.780141,0.17604843,-1.0180199,0.22462787
-0.0104746325,4.382287,9.0259905,11.1508,-29.1092,-36.0022,64.46727,-27.694708,-2.493037,0.15318261,-1.0681981,0.2245113
-0.15689503,4.545467,9.2355585,11.528999,-29.4508,-36.112,64.63913,-27.77286,-1.8925446,0.11041539,-1.1807952,0.24103196
-0.06868366,4.5138183,9.476549,9.9307995,-29.5606,-36.697598,64.9917,-27.840584,-1.2349246,0.114462286,-1.2141362,0.25017497
0.23298575,4.5308022,9.696741,9.4428,-29.1824,-35.9046,65.1856,-27.905397,-0.561535,0.14510547,-1.196733,0.25786906
0.65279406,4.5278845,9.747319,9.4306,-29.585,-35.135998,65.36924,-28.003508,0.094161026,0.24424617,-1.0743934,0.2358193
0.7125743,4.569633,9.493383,9.516,-30.097399,-36.5146,65.70818,-28.152988,0.69426215,0.27773717,-0.96053064,0.21193759
0.93358904,4.4769325,8.934338,9.1988,-30.3048,-36.7098,65.84553,-28.312332,1.1936175,0.26199922,-0.74034935,0.19395137
1.2520179,4.3436804,8.080132,8.9182,-30.0852,-37.392998,66.05262,-28.38804,1.4220359,0.12465448,-0.54531544,0.18062826
1.2288989,4.166285,7.4975924,8.9182,-30.0852,-37.392998,66.11792,-28.473593,1.7630261,-0.03970291,-0.51235735,0.17265104
1.1061212,4.0770264,7.1395097,8.5278,-29.8168,-37.002598,66.31729,-28.444435,2.0870595,-0.24118185,-0.5930122,0.19238591
1.2015152,4.119149,7.119982,8.113,-29.9632,-36.221798,66.39045,-28.257559,2.4694304,-0.51290697,-0.7518072,0.23210548
1.4425813,4.1096473,7.3277535,7.8079996,-30.195,-36.905,66.43435,-28.108727,2.6960268,-0.66867095,-0.8820241,0.25675324
1.8146553,4.209755,7.888745,7.8324,-29.7802,-37.4784,66.70972,-27.73747,3.224211,-0.7684611,-0.98757654,0.27067593
2.1794717,4.2669163,8.49994,6.8686,-29.036,-37.6614,66.77445,-27.529112,3.5404415,-0.7545218,-0.95551777,0.24757695
1.9205239,4.30455,9.05517,6.8686,-29.036,-37.6614,67.10182,-27.026743,5.062201,-0.67856336,-0.9251411,0.18838897
1.6801311,4.5798087,9.533486,6.6612,-29.0604,-37.856598,67.24352,-26.67845,5.557956,-0.3799755,-0.7561539,0.119758226
2.0760722,4.4241104,9.692925,6.161,-29.097,-38.1494,67.24352,-26.67845,5.557956,-0.258835,-0.749509,0.13146593
2.6276364,4.2675147,9.573066,5.9658,-29.1946,-38.064,67.58465,-26.449106,6.1941557,-0.0060287137,-0.7867638,0.11464548
2.6425252,4.3522096,9.41894,6.1488,-29.4508,-38.1616,67.73038,-26.476082,6.6306453,0.2045266,-0.8074812,0.076558
2.253692,4.7487493,8.897078,6.1488,-29.4508,-38.1616,67.96173,-26.558151,6.849786,0.48113132,-0.73358786,0.07997205
2.031106,5.233276,8.442254,4.0748,-29.157999,-39.1376,68.120575,-26.827368,7.2503366,0.6326985,-0.6005232,0.07689108
1.9801544,5.595474,7.910517,5.5632,-29.097,-37.6736,68.49774,-27.68828,7.8328605,0.73203903,-0.42250955,0.098308
2.19466,5.7507977,7.061773,5.8438,-29.7314,-38.0762,68.75878,-28.94008,8.432368,0.7542887,-0.12207312,0.10551914
2.2474072,5.67755,6.484396,5.612,-30.414598,-37.3076,68.75276,-29.17545,8.483507,0.6826103,0.097475305,0.09860777
2.1985505,5.507487,6.1976905,5.0386,-29.706999,-37.002598,68.77338,-29.554052,8.458562,0.5500119,0.27210814,0.084968224
2.1770775,5.4105964,6.073566,5.0386,-29.706999,-37.002598,68.63819,-29.812387,8.323856,0.3238352,0.4317858,0.09589318
2.183512,5.3975782,6.2038255,5.7218,-30.0364,-37.1002,68.642975,-29.892614,8.231941,0.11924196,0.5274791,0.10646842
2.0940287,5.1864395,6.7494044,5.3069997,-30.4024,-36.9172,68.43579,-29.923948,7.999845,-0.13784437,0.68221056,0.1181428
1.9487306,4.990489,7.2346044,5.3192,-30.255999,-37.4052,68.314224,-29.881588,7.8571725,-0.30330092,0.8039839,0.12079077
1.8941877,4.9295864,7.422998,5.3192,-30.255999,-37.4052,68.28137,-29.808077,7.6937494,-0.3527297,0.84085566,0.118925534
1.6993594,4.7657332,7.992444,5.7218,-30.2438,-37.5028,67.98061,-29.561077,7.308289,-0.48274675,0.94247776,0.11679383
1.5365537,4.629563,8.576554,6.3318,-29.951,-37.5882,67.8163,-29.399271,7.0877824,-0.575459,1.0416352,0.11396267
1.4511107,4.5902085,8.928128,6.3318,-29.951,-37.5882,67.74565,-29.225086,6.8534846,-0.61487883,1.1108654,0.112330586
1.3763667,4.57113,9.264289,6.8198,-29.9876,-37.1002,67.56474,-29.031734,6.5974655,-0.64670444,1.1846756,0.108200416
1.2452093,4.5256395,9.663222,6.8198,-29.9876,-37.1002,67.18045,-28.62179,6.0313125,-0.6741334,1.2948245,0.10347071
1.0559177,4.514417,9.991154,6.9417996,-29.597198,-36.6,67.09484,-28.412397,5.7199597,-0.67664814,1.3400564,0.09749196
0.82599956,4.471995,10.359337,7.6615996,-29.0726,-37.3686,66.888916,-28.199244,5.3970323,-0.66613954,1.349316,0.094877295
0.490961,4.442516,10.922348,7.6615996,-29.0726,-37.3686,66.68409,-27.991476,5.072598,-0.61263055,1.3088803,0.104186825
0.3198504,4.382586,11.433286,7.3687997,-28.9994,-37.271,66.481926,-27.794289,4.753853,-0.5177199,1.2324889,0.11944181
0.26523265,4.373009,11.598785,7.3687997,-28.9994,-37.271,66.40618,-27.619244,4.4495435,-0.4739535,1.203078,0.12535395
0.19729719,4.3060465,11.8300495,8.259399,-29.048199,-37.271,66.213005,-27.459538,4.15516,-0.37166518,1.1486032,0.13925995
0.09644144,4.3486934,11.897087,8.356999,-29.1336,-37.271,65.84119,-27.231726,3.6126585,-0.18807255,1.0874667,0.15364893
0.012195465,4.4258313,11.76593,8.356999,-29.1336,-37.271,65.78951,-27.177713,3.3601365,-0.054041922,1.067865,0.1659062
-0.049081136,4.4776807,11.399693,9.0646,-28.816399,-36.9782,65.60716,-27.156626,3.109964,0.14247416,1.046981,0.17907944
-0.12270284,4.4782796,11.131467,9.0646,-28.816399,-36.9782,65.42641,-27.173529,2.8669882,0.32455128,1.0237322,0.18394238
-0.23657705,4.4297967,10.857031,8.6742,-28.7432,-37.075798,65.189606,-27.32031,2.3943272,0.43145272,0.99477106,0.19288553
-0.4019266,4.4204445,10.583195,9.5526,-29.1702,-37.3686,65.010765,-27.439085,2.1685424,0.52633,0.95012194,0.19701569
-0.6218939,4.4716206,10.205958,9.5526,-29.1702,-37.3686,64.83804,-27.583662,1.9577688,0.63844407,0.85339606,0.21786638
-0.69940615,4.486584,9.999758,9.0402,-29.6094,-36.9904,64.667984,-27.75249,1.7627691,0.6920364,0.772125,0.23620233
-0.70816,4.4432645,9.695245,9.0402,-29.6094,-36.9904,64.47467,-28.143608,1.4482251,0.7507913,0.63429725,0.2649303
-0.63536125,4.414758,9.5144825,9.516,-29.902199,-36.221798,64.32431,-28.354551,1.3285635,0.7830999,0.5511776,0.2786365
-0.55695117,4.3861027,9.204733,9.6258,-29.7314,-36.307198,64.18122,-28.572893,1.2312526,0.81412613,0.4523034,0.2948907
-0.5303905,4.388347,8.957756,9.6258,-29.7314,-36.307198,64.16133,-28.803679,1.1520939,0.82456815,0.3973455,0.29737213
-0.5948843,4.4043584,8.56174,9.7234,-29.8412,-35.3434,63.904503,-29.25464,1.0249672,0.8086803,0.32143703,0.30426684
-0.679654,4.371363,8.196774,9.9186,-29.9144,-35.1482,63.78459,-29.47907,0.98665845,0.7595513,0.26837766,0.32230303
-0.74758947,4.3947067,7.9619927,9.9186,-29.9144,-35.1482,63.776928,-29.69888,0.9629312,0.71426934,0.25512117,0.33998945
-0.7161656,4.4852376,7.628824,9.991799,-30.378,-35.5508,63.656982,-29.904793,0.94547933,0.6345138,0.267495,0.37223142
-0.70382047,4.5389576,7.527295,9.991799,-30.378,-35.5508,63.53313,-30.095404,0.93257457,0.6054527,0.2783367,0.38422224
-0.6983587,4.7107415,7.1098814,9.894199,-30.3536,-35.062798,63.361927,-30.431364,0.8994618,0.5033976,0.33469352,0.41741347
-0.7231237,4.730868,7.042694,9.894199,-30.3536,-35.062798,63.361927,-30.431364,0.8994618,0.42828846,0.38677028,0.45048812
-0.6584055,4.8193784,6.930765,10.3578,-31.146599,-35.367798,63.038696,-30.686352,0.84093827,0.3245846,0.45863187,0.49860126
-0.6369325,4.8647933,6.9069724,10.0528,-31.1954,-34.3918,62.854942,-30.783587,0.80145746,0.23896688,0.52794546,0.55161065
-0.61628246,4.837335,6.855871,10.0528,-31.1954,-34.3918,62.551804,-30.931076,0.7061501,0.18705666,0.5815877,0.5828534
-0.5883002,4.8219223,6.7893577,9.8698,-30.8538,-34.3918,62.3233,-30.980364,0.6466405,0.13832733,0.63513,0.6154284
-0.57109195,4.7646112,6.7478333,9.8698,-30.8538,-34.3918,62.07618,-31.016184,0.5788897,0.088265695,0.6802454,0.6506681
-0.57602996,4.7562313,6.7740946,9.2476,-31.3662,-33.6232,61.948357,-31.042269,0.5079029,-0.022682618,0.7491593,0.7053928
-0.55605334,4.7826424,6.8112044,9.8454,-31.536999,-33.818398,61.39282,-31.037832,0.34959683,-0.08738304,0.77828693,0.7319724
-0.5279215,4.969166,6.9579244,9.6502,-31.2564,-33.427998,60.932236,-30.96799,0.18221267,-0.22033116,0.8067318,0.7746064
-0.5279215,4.969166,6.9579244,9.6502,-31.2564,-33.427998,60.932236,-30.96799,0.18221267,-0.22033116,0.8067318,0.7746064
-0.5363012,4.993856,7.7316256,9.4672,-30.914799,-33.611,59.524208,-30.475592,-0.19314103,-0.48967478,0.7832498,0.8198884
-0.5470751,5.0252795,8.106467,9.0646,-31.0612,-34.196598,58.89876,-30.1865,-0.34130144,-0.57067937,0.7422479,0.81967187
0.039728783,4.999018,9.176227,9.174399,-30.9758,-34.3918,57.69397,-29.388182,-0.60449916,-0.55236006,0.62638664,0.8019521
0.12988544,4.8293295,9.783082,9.394,-30.4024,-33.9892,56.87251,-28.967459,-0.721071,-0.38245693,0.5081273,0.7167008
0.22647652,4.8395047,9.987039,9.7722,-30.878199,-34.8798,56.516132,-28.768072,-0.7755293,-0.22860815,0.49900094,0.6680381
0.22819735,4.8107743,9.922619,9.271999,-30.951399,-34.0014,56.047455,-28.65112,-0.8440728,-0.06628254,0.5377213,0.6184761
0.14357728,4.6910644,9.810915,9.577,-30.7684,-34.196598,55.738533,-28.629835,-0.94364524,0.04145157,0.5889154,0.5897814
0.0899322,4.6202106,9.654169,9.4672,-31.0246,-33.9038,55.509476,-28.648666,-1.0135752,0.13006699,0.66953695,0.5705794
0.05805939,4.6686935,9.365892,9.9552,-31.3174,-34.7822,55.18061,-28.740345,-1.1964688,0.2087567,0.80273485,0.55074465
-0.107813895,4.745383,9.11091,9.7478,-31.598,-34.892,54.685184,-28.871458,-1.4511622,0.2356694,0.8997772,0.5402693
-0.2852841,4.7884784,8.821286,9.455,-31.3906,-34.1112,54.424393,-28.94603,-1.6042478,0.24244754,0.98219734,0.5367553
-0.50622404,4.763264,8.468142,9.455,-31.3906,-34.1112,54.0381,-29.104914,-1.9441901,0.23342113,1.0419682,0.5361225
-0.68144965,4.7133603,8.277952,9.8576,-31.1954,-34.099,53.485287,-29.25572,-2.3114839,0.21225402,1.0431839,0.5338742
-0.8372224,4.6541786,8.2276745,10.613999,-32.2202,-34.123398,53.353447,-29.331573,-2.4932225,0.18847224,1.0036643,0.5289447
-0.98536366,4.5554924,8.12622,10.6018,-32.452,-33.4524,52.556793,-29.521496,-2.993985,0.1358126,0.84923255,0.5062787
-1.3022213,4.6248493,8.379855,10.516399,-32.208,-33.8306,52.242405,-29.625128,-3.2456543,0.12795195,0.6602274,0.49776855
-1.405172,4.6218567,8.233136,10.613999,-32.098198,-33.5378,51.837868,-29.71139,-3.3928442,0.07227795,0.3551112,0.5041803
-1.3349919,4.6401124,8.26239,10.9922,-32.5984,-33.1596,51.66549,-29.757923,-3.37683,-0.008976455,0.039353177,0.5169705
-1.270947,4.783615,8.213683,10.309,-32.3544,-32.9644,51.535786,-29.760738,-3.3096023,-0.06594946,-0.1772142,0.5274791
-1.1713632,4.958317,8.195053,10.492,-32.6106,-32.9644,51.329235,-29.734295,-3.0720625,-0.104803026,-0.37243128,0.5447992
-1.0218753,4.9398365,8.161834,10.3944,-32.635,-33.4524,51.317474,-29.6905,-2.7357993,-0.10728446,-0.42447472,0.56125325
-0.83258367,4.9836802,8.205303,9.991799,-32.573997,-33.55,51.152863,-29.64179,-2.3731291,-0.08513476,-0.37662807,0.58340293
-0.76068276,5.098677,8.261867,9.2109995,-32.2324,-33.062,51.20251,-29.627237,-2.1991377,-0.021416921,-0.18797262,0.6056359
-0.7187094,5.146561,8.1964,9.2109995,-32.2324,-33.062,50.96688,-29.619349,-1.9245234,0.052526414,0.0082936445,0.61211425
-0.7529764,5.24405,8.060978,8.7108,-32.3666,-33.4524,50.81431,-29.670607,-1.764064,0.10510279,0.15881164,0.62870157
-0.832434,5.3282957,7.9071503,9.2109995,-32.2446,-33.2572,50.634922,-29.711308,-1.7206662,0.13599579,0.26318166,0.64807004
-0.8228572,5.3508162,7.6898017,8.783999,-33.0498,-32.9766,50.237236,-29.811138,-1.6808586,0.120807424,0.3689506,0.67618185
-0.70531684,5.4061074,7.55221,8.979199,-33.0498,-33.269398,49.95565,-29.903605,-1.6772789,0.058105472,0.45426857,0.69320214
-0.66708446,5.4181533,7.54181,8.662,-33.3914,-32.696,49.401424,-29.967457,-1.7401745,-0.047413666,0.5558074,0.70700824
-0.66992754,5.391967,7.631368,8.8694,-33.2816,-32.5008,49.148186,-29.96396,-1.7792889,-0.10790065,0.58903193,0.7068084
-0.5253028,5.335553,7.8311343,8.2472,-33.6964,-33.184,48.55121,-29.888224,-1.9173125,-0.1910869,0.60125595,0.6910205
-0.45467386,5.2667947,8.042198,9.271999,-33.3304,-33.659798,48.29687,-29.843014,-1.9680371,-0.22302909,0.5927624,0.67441654
-0.5010615,5.202376,8.26052,9.0524,-33.672,-33.3792,47.79998,-29.737215,-2.0702238,-0.23443702,0.5859843,0.6560639
-0.55478144,5.1319714,8.521787,8.5766,-33.245,-33.269398,47.71246,-29.68485,-2.120726,-0.23641883,0.61214757,0.61339664
-0.5410896,5.056928,8.678533,8.7596,-33.427998,-33.3792,46.99355,-29.515728,-2.321535,-0.21228732,0.6800622,0.59875786
-0.48273093,4.986823,8.752154,8.7596,-33.427998,-33.3792,46.91535,-29.470663,-2.4050336,-0.17937921,0.75735295,0.5808216
-0.56996965,4.923227,8.815974,8.8572,-33.6476,-32.696,46.412605,-29.39394,-2.6254425,-0.12227297,0.86865103,0.5544251
-0.6700772,4.879832,8.827123,9.174399,-33.2328,-33.5622,46.056095,-29.355373,-2.9013586,-0.082503445,0.9243583,0.5392534
-0.8240543,4.88275,8.825626,9.5648,-33.501198,-33.7696,45.79473,-29.346575,-3.0548053,-0.049278904,0.93183595,0.53041023
-0.90291333,4.931382,8.811635,9.3818,-33.037598,-33.269398,45.27162,-29.350077,-3.3644292,-0.017969564,0.88580453,0.535906
-0.6241385,4.894272,8.722376,9.8576,-33.6232,-33.0864,44.924145,-29.37822,-3.6295342,0.001582121,0.7509079,0.53880376
-0.44360068,4.701464,8.612318,9.8576,-33.6232,-33.0864,44.46262,-29.409376,-3.8179424,0.0022149694,0.58040524,0.53956985
1.338658,3.6029742,9.144354,8.4302,-34.1478,-33.2938,44.300304,-28.304653,-2.739613,0.21013898,1.0739603,0.15709628
1.3559412,4.1522193,9.041478,10.0406,-33.8306,-33.7696,44.13209,-28.242859,-2.6427252,0.39516386,1.2347039,0.06593281
0.8339304,3.7177463,9.04492,9.2598,-33.4646,-32.8912,43.959538,-27.755985,-1.5516995,0.5397531,1.476352,-0.054474924
0.8124574,3.3609354,9.317934,9.5282,-34.123398,-32.3178,43.601173,-26.889833,-1.0618308,0.6739502,1.4538193,-0.18094468
0.8941595,3.373505,9.6041155,10.248,-33.501198,-31.3296,43.47992,-27.001106,-1.5469209,0.9176135,1.2278258,-0.3334778
0.75469726,4.0405893,9.875783,11.3216,-34.0868,-31.4394,43.36783,-27.540705,-2.1899707,1.1432406,0.97027314,-0.436299
-0.09023148,4.595745,9.857976,11.8096,-34.440598,-30.1828,43.480495,-28.22633,-2.7371416,1.3132603,0.6571797,-0.48078158
-1.2197709,5.3416886,9.607707,11.712,-34.281998,-30.560999,43.564953,-28.9969,-3.1509564,1.462929,0.40225843,-0.46349484
-2.3934536,6.219612,9.054422,12.1756,-35.0994,-29.706999,43.795654,-29.853853,-3.448283,1.5908809,0.29136005,-0.38946822
-3.0069678,6.8338,8.623016,12.2732,-35.1726,-29.511799,43.84624,-30.309967,-3.579636,1.6583792,0.34710068,-0.29957044
-3.2247653,7.280169,8.188619,12.346399,-35.746,-28.548,43.87869,-31.256119,-3.8525171,1.6919534,0.4953371,-0.21213745
-3.0273933,7.4318266,7.4078097,12.346399,-35.746,-28.548,43.899097,-32.236076,-4.192807,1.6845591,0.7798691,-0.116327524
-2.1042788,6.9475245,6.2843304,12.5538,-35.4776,-27.084,43.623634,-34.513027,-5.487994,1.6134969,1.1798292,-0.073760144
-1.102081,6.4256635,5.516465,12.5171995,-36.2706,-26.9132,43.34891,-35.46552,-6.1405363,1.4654437,1.5669492,-0.13494658
-0.9873089,6.3189716,5.7674823,13.2858,-36.783,-25.656599,43.120075,-35.90582,-6.5268283,1.323619,1.5400366,-0.19366826
-1.4452,6.192827,5.793295,13.883599,-36.966,-26.242199,42.829086,-36.70223,-7.2568665,1.1506516,1.1319993,-0.21376953
-2.0040965,6.241609,5.6254764,14.0666,-37.271,-25.559,42.585224,-37.33951,-7.7820005,0.86590314,0.76752853,-0.20920636
-2.0599113,6.24116,5.38845,13.4566,-37.454,-25.0832,42.55481,-37.810734,-8.180987,0.6023051,0.6987978,-0.20885663
-2.13271,6.5956516,5.521777,14.1764,-37.002598,-23.8998,42.38501,-38.148052,-8.594052,0.42995387,0.838674,-0.21638419
-2.5526679,6.8998647,5.865794,14.5546,-37.319798,-23.6192,42.28114,-38.305042,-8.832679,0.36915046,0.9015425,-0.20963936
-3.3084126,7.026084,6.4196777,14.5668,-37.0636,-23.8022,42.055267,-39.549446,-10.184121,0.3616562,0.8722649,-0.16437404
-3.614197,7.0584807,6.638822,15.2378,-37.637,-23.521599,41.782867,-39.970783,-10.835623,0.40740448,0.7561872,-0.0731606
-3.1602714,6.9921165,6.428282,15.066999,-37.1246,-23.607,41.654964,-40.366318,-11.331833,0.4588817,0.67664814,-0.0133397775
-3.003152,6.796839,6.2452,15.3476,-37.3686,-23.521599,41.25885,-41.489887,-12.439232,0.51775324,0.7119711,0.005212672
-3.141043,6.687529,6.232257,15.4452,-37.4174,-22.935999,41.08659,-42.059227,-12.965392,0.59156334,0.77044296,0.010775076
-3.4070988,6.789208,6.3405194,15.4452,-37.4174,-22.935999,40.729378,-42.744793,-13.697485,0.6545318,0.77517265,0.016437404
-3.46022,7.0816746,6.4276085,15.433,-37.624798,-21.8624,40.572266,-43.272877,-14.116044,0.72156376,0.69117033,0.03685509
-3.2858922,7.2723126,6.46816,15.8356,-37.710197,-22.0698,40.42715,-43.519966,-14.253465,0.759035,0.5629353,0.044082887
-3.1000423,7.353042,6.4601545,15.738,-37.6614,-21.1914,40.35376,-44.01369,-14.46588,0.7748729,0.41969505,0.032258615
-2.991181,7.3654623,6.4121213,15.6404,-37.551598,-20.605799,40.192623,-44.49194,-14.606984,0.75635374,0.27637154,0.0044632466
-3.278036,7.3616467,6.2864256,15.6282,-37.8078,-20.410599,40.265797,-44.93995,-14.710052,0.71060544,0.17370023,-0.007577527
-3.0992942,7.2654295,6.0077252,15.8234,-37.856598,-19.824999,40.200516,-45.360176,-14.789768,0.63118297,0.12748565,-0.017469946
-2.7375453,7.13315,5.884873,15.8234,-37.856598,-19.824999,40.327515,-45.73313,-14.862194,0.5521602,0.08023851,-0.056923047
-2.7742064,7.0458364,5.8895116,15.6282,-37.624798,-18.848999,40.31721,-46.043964,-14.928221,0.49152336,0.10228828,-0.08188725
-3.119121,7.0324435,5.9090395,15.8112,-38.088398,-19.2516,40.310646,-46.18776,-14.969545,0.46532676,0.14192457,-0.09024751
-2.9459903,7.20116,5.5745993,15.420799,-37.8322,-19.1418,40.454033,-46.47052,-15.081653,0.44202796,0.24542859,-0.09081374
-2.8006175,7.2229323,5.191303,15.420799,-37.8322,-19.1418,40.370815,-46.760807,-15.234309,0.41160125,0.46622607,-0.10663495
-3.3143234,7.3671083,4.782418,15.9332,-37.5272,-18.9466,40.35826,-47.107666,-15.499641,0.36723524,0.7173836,-0.124221474
-4.375703,7.456816,1.2333132,16.3114,-38.0274,-18.5684,40.065945,-47.41312,-15.860146,0.18051167,1.0502785,-0.08373583
-3.7590463,7.7622266,4.2325745,16.1162,-37.9664,-19.044199,39.738274,-47.75879,-16.397991,-0.048795942,0.9773844,-0.010208843
-4.088324,8.242264,5.632734,16.226,-37.6004,-18.848999,39.35209,-48.021027,-16.810738,-0.09777507,0.32348543,0.022999043
-3.55307,7.939622,6.343213,16.128399,-37.5638,-18.1658,39.462433,-47.97451,-16.846033,-0.19971363,-0.25085777,0.090280816
-3.5148377,7.636456,6.357653,16.518799,-37.8322,-18.5562,39.540047,-47.836704,-16.710836,-0.26114988,-0.41724694,0.10153886
-3.2639704,7.39943,5.897218,16.518799,-37.637,-18.2634,39.861713,-47.642292,-16.510216,-0.31114492,-0.49403808,0.092062786
-3.181969,7.214478,5.6930375,16.0308,-37.466198,-17.873,40.040737,-47.422073,-16.28825,-0.3559106,-0.55121094,0.07021286
-2.6271126,7.08145,5.2149453,15.6404,-37.271,-18.8368,40.580086,-46.99569,-15.909745,-0.4595645,-0.6571631,0.03847052
-2.6779146,6.8087354,4.9321303,15.323199,-37.6736,-19.337,41.044106,-46.64532,-15.652754,-0.54371667,-0.60613555,0.007843989
-3.044003,6.8049197,5.087529,15.323199,-37.6736,-19.337,41.171227,-46.455868,-15.535003,-0.58531815,-0.54733056,0.0017320061
-3.8283286,7.4681883,6.620267,15.554999,-37.0636,-19.8128,41.791958,-45.84673,-15.277295,-0.5057957,-0.84899944,0.13426378
-3.4349313,7.5097127,6.874501,14.7741995,-36.6,-18.9222,42.104317,-45.48425,-14.871671,-0.40687156,-1.1170939,0.1998302
-2.9128456,7.281216,6.555175,14.4692,-36.6854,-20.191,42.89313,-45.010784,-14.073046,-0.3159912,-1.1289183,0.20584226
-2.9937997,7.16824,6.205995,14.3838,-36.5634,-20.9718,43.25127,-44.761395,-13.565421,-0.25826874,-0.9524202,0.18775612
-3.2735472,7.217022,6.0514946,14.1886,-36.2706,-20.374,43.722866,-44.63784,-13.220912,-0.18522473,-0.81787324,0.186607
-3.2119713,7.160683,5.5864954,12.8954,-36.295,-21.35,44.16444,-45.591816,-13.862407,-0.16928694,-0.7034276,0.2045266
-3.1337109,7.2874265,5.3742347,12.9808,-36.453598,-21.167,44.267185,-45.796932,-13.794644,-0.21143797,-0.5832031,0.20326091
-3.2502036,7.323788,5.2727804,13.297999,-36.307198,-21.9356,44.565987,-46.01249,-13.793696,-0.29280895,-0.48547798,0.1998302
-3.2383823,7.1434,5.218462,12.6026,-36.2096,-21.2524,44.6174,-46.09328,-13.74008,-0.3692504,-0.45283633,0.21068855
-3.2769887,6.441749,5.8004775,11.9194,-35.746,-21.8258,45.074986,-45.68687,-13.333193,-0.46447742,-0.62327236,0.26263207
-2.5579052,6.60246,6.9605427,11.9316,-35.5508,-23.094599,46.04585,-44.89208,-12.42323,-0.4741533,-0.6836261,0.23781776
-2.6642227,6.5819597,7.191284,11.528999,-35.7216,-22.704199,46.225716,-44.587334,-12.055802,-0.43360105,-0.63911027,0.22850823
-2.823512,6.5813613,7.280543,11.5168,-36.112,-23.3996,46.64977,-44.311832,-11.720903,-0.3571097,-0.60895,0.23045674
-3.0009074,6.703615,7.3215437,10.736,-35.5752,-22.704199,46.801586,-44.09669,-11.376327,-0.2582854,-0.6484531,0.2546382
-2.4741082,6.7125187,6.658724,10.858,-35.062798,-22.9848,47.234077,-43.92765,-11.003682,-0.13269831,-0.725594,0.28080148
-1.7753005,6.4053874,5.7751136,10.4553995,-35.014,-23.3752,47.474373,-43.763153,-10.42902,-0.14067553,-0.48799273,0.22249617
-1.8722657,6.5233016,5.935151,10.1382,-35.5386,-23.094599,47.79677,-43.70382,-10.301359,-0.15553081,-0.28245023,0.17073584
-2.269404,7.0346136,6.700398,10.2602,-34.977398,-22.692,47.836742,-43.611485,-10.122146,-0.11950842,-0.17238458,0.11902546
-2.4554782,7.254955,6.9178214,10.5529995,-35.209198,-23.9608,48.114117,-43.530407,-10.010938,-0.099240616,-0.14815314,0.1066183
-2.5681555,7.5088897,7.0152354,10.065,-34.8554,-23.4728,48.11624,-43.44693,-9.867924,-0.1002232,-0.048213053,0.1289845
-2.4822633,7.527146,7.0028157,10.2724,-34.8798,-24.0584,48.344044,-43.38595,-9.806844,-0.1119642,-0.018219372,0.13281488
-2.3626282,7.399954,7.0485296,10.2724,-34.8798,-24.0584,48.319054,-43.357506,-9.778089,-0.1514173,0.025780244,0.13045004
-2.471714,7.202731,7.27972,10.065,-34.8432,-23.3752,48.519306,-43.27646,-9.742972,-0.19425115,0.08350268,0.1268528
-2.5364323,7.0643167,7.617452,9.9796,-34.513798,-23.558199,48.42788,-43.177773,-9.731322,-0.24151492,0.15514778,0.1377611
-2.2889316,7.039477,7.963788,10.1748,-34.6846,-23.6558,48.42788,-43.177773,-9.731322,-0.27807024,0.2132033,0.14705399
-1.9224691,6.827665,8.291494,9.6746,-34.7212,-23.8632,48.40025,-42.896553,-9.814206,-0.33222875,0.31860584,0.121357
-1.8615667,6.5890675,8.272416,10.3822,-34.6114,-24.0462,48.476097,-42.724068,-9.928975,-0.3620892,0.43563285,0.10133901
-1.7918355,6.3934164,8.127866,9.4916,-34.2698,-23.6558,48.255753,-42.55201,-10.084065,-0.38132447,0.4927724,0.082753256
-1.7406595,6.304008,8.029479,10.3944,-34.3186,-23.6558,48.308086,-42.365032,-10.2654915,-0.38490504,0.47135547,0.07417649
-1.7098341,6.227543,7.9117146,10.2114,-33.916,-24.3268,48.20196,-42.274006,-10.348902,-0.39056736,0.4228593,0.07349368
-1.9007717,6.091672,7.8076415,10.0162,-33.55,-23.9242,47.972446,-41.663452,-10.744297,-0.41521516,0.26384783,0.08043836
-2.0370915,6.083966,7.8648777,10.3334,-33.3548,-23.8266,48.13557,-41.445457,-10.813356,-0.38142437,0.12507083,0.101355664
-2.0290859,6.0588264,7.747936,10.7238,-33.4646,-24.5098,48.092197,-41.34573,-10.817959,-0.3472006,-0.005795559,0.13018358
-1.9559132,6.0996027,7.6505966,10.6262,-33.4768,-24.705,48.280823,-41.056,-10.7473955,-0.32676625,-0.08052163,0.15719621
-1.98816,6.1364884,7.632266,9.8331995,-33.2938,-24.0218,48.24476,-40.878574,-10.643887,-0.3128436,-0.12310567,0.18419218
-2.1502924,6.2087636,7.7440453,10.1504,-33.0254,-24.107199,48.492115,-40.70066,-10.522765,-0.29150996,-0.14020923,0.23450363
-2.1920414,6.2362223,7.73387,10.736,-33.110798,-24.692799,48.43887,-40.54505,-10.373969,-0.27712098,-0.13131604,0.27633825
-1.9177556,6.091448,7.4764934,10.431,-33.306,-24.705,48.617645,-40.395874,-10.221554,-0.26709533,-0.08385241,0.327982
-1.7012299,5.801974,7.20939,9.6746,-32.452,-24.6806,48.48605,-40.264435,-10.076374,-0.28371593,0.061602794,0.36696878
-1.4634558,5.6142535,7.1117516,9.174399,-32.3178,-25.071,48.569736,-40.12527,-9.97995,-0.30926302,0.153116,0.38353944
-1.1947814,5.4840684,7.1731777,9.076799,-32.183598,-24.1926,48.34481,-39.986427,-9.904233,-0.34020597,0.14657101,0.3897347
-0.99060094,5.297695,7.3009686,9.076799,-32.183598,-24.1926,48.414516,-39.820415,-9.830772,-0.37629497,0.08753292,0.3965961
-0.8736592,5.1657147,7.3908257,9.5892,-31.9884,-24.278,48.309,-39.732937,-9.780078,-0.39423123,0.054491576,0.40613878
-0.82023853,5.0633626,7.5122566,9.174399,-32.3178,-25.071,48.39802,-39.528667,-9.660388,-0.43601587,-0.027578866,0.40493968
-0.8595184,5.0062757,7.749582,9.271999,-32.5984,-25.4614,48.23304,-39.29937,-9.492373,-0.47178847,-0.15899482,0.40682158
-1.3280338,5.0523643,8.036512,9.4672,-32.513,-25.656599,48.336643,-38.86093,-9.145418,-0.48671037,-0.28158423,0.43005377
-1.6029929,5.251906,8.163554,8.6742,-32.452,-25.3638,48.26991,-38.50786,-8.848128,-0.49242267,-0.40680492,0.49656948
-0.89191496,5.34917,8.119785,8.9914,-32.0494,-26.4252,48.482285,-38.18569,-8.456452,-0.5152052,-0.56738186,0.55022836
-0.2917185,5.228712,8.019528,8.3082,-31.7932,-26.0348,48.467278,-38.00321,-8.192108,-0.55672336,-0.6904376,0.5521935
0.14335282,4.9259953,7.9372277,7.8933997,-32.1714,-26.1446,48.76419,-37.478825,-7.415921,-0.6345304,-0.7701765,0.5384374
0.44539633,4.6645784,7.918074,7.625,-31.4882,-26.413,48.791462,-37.047794,-6.788854,-0.69170326,-0.7631652,0.522433
0.69918174,4.4639144,7.9305687,7.1126,-31.598,-26.4252,48.80483,-36.82832,-6.4986486,-0.7321223,-0.71751684,0.49102372
1.0154408,4.31495,8.040178,7.1126,-31.598,-26.4252,49.10237,-36.366123,-5.9613605,-0.7644975,-0.6214405,0.4353664
1.1370213,4.283526,8.280272,7.4054,-32.098198,-27.4988,49.116245,-35.836597,-5.3919816,-0.766879,-0.5410354,0.39877775
1.1368717,4.293477,8.693496,7.8202,-31.463799,-27.7794,49.391785,-34.65824,-4.0323677,-0.7367188,-0.40523946,0.35054803
1.0369138,4.3828855,8.974216,6.527,-31.4394,-27.7794,49.38708,-33.277847,-2.5459,-0.6721183,-0.22759226,0.306232
0.8949825,4.5447187,9.044097,6.8441997,-30.9758,-27.6696,49.516434,-32.675304,-2.0940292,-0.5812213,-0.019718224,0.27605513
0.75746554,4.576367,9.071405,6.466,-30.6586,-28.1576,49.452656,-32.44813,-1.9712996,-0.47178847,0.1842255,0.24426283
0.6630442,4.5903583,9.076419,6.2708,-30.414598,-28.243,49.50464,-32.064156,-1.8370165,-0.38978463,0.3166407,0.22699273
0.07249942,4.808679,9.089362,6.0634,-30.682999,-28.2552,49.29739,-31.83524,-1.9072837,-0.29454097,0.445009,0.22121382
-0.7315034,5.2756233,9.074623,6.6734,-30.4634,-27.9502,49.053432,-31.679668,-2.0555356,-0.2164508,0.49976704,0.27284092
-1.2925696,5.805565,8.915034,7.0882,-30.0852,-29.4996,48.988075,-31.572311,-2.2095742,-0.15599713,0.47606853,0.3777772
-1.5159037,6.1840734,8.663494,7.0759997,-30.5366,-29.6094,48.662037,-31.498013,-2.3177865,-0.12597014,0.35329592,0.48614413
-1.5481507,6.2026286,8.25588,6.8808,-30.4024,-28.6334,48.518864,-31.44384,-2.3374085,-0.155714,0.1895714,0.575459
-1.5481507,6.2026286,8.25588,6.8808,-30.4024,-28.6334,48.518864,-31.44384,-2.3374085,-0.155714,0.1895714,0.575459
-0.779986,5.8325,7.4053407,6.8808,-30.2438,-28.926199,48.518864,-31.44384,-2.3374085,-0.3334112,-0.015321593,0.6702364
-0.6241385,5.4444895,6.783222,6.6977997,-29.975399,-28.7188,47.73027,-31.053307,-1.9639469,-0.5964096,-0.07216137,0.72029805
-1.1061212,5.2572927,6.7087026,5.7096,-29.743599,-28.621199,47.59324,-30.683496,-1.697019,-0.8490161,-0.19873105,0.78496516
-0.9437644,5.1875615,6.741473,6.2098,-29.6582,-29.011599,47.272125,-30.16009,-1.3321434,-1.132399,-0.42793873,0.87734437
-1.1956793,4.9001827,6.803049,5.1362,-29.243399,-30.365799,47.16069,-29.465353,-0.8319599,-1.5307603,-0.6227062,1.0128238
-0.52275896,4.2144685,7.1324763,5.1362,-29.243399,-30.365799,46.8249,-28.087599,0.0397517,-1.8454691,-0.57454306,1.123156
1.8173487,3.1933413,7.517943,4.1602,-28.535799,-31.1344,46.411892,-27.003662,0.6253922,-2.0013664,-0.5429839,1.077974
1.9082536,2.4897454,7.9947634,3.9894,-28.0478,-31.7078,46.21503,-25.833086,1.1367077,-2.1428413,-0.27379018,0.91293377
1.7376667,2.3285856,8.699482,3.5135999,-27.4744,-32.183598,45.815807,-24.597126,1.5003977,-2.1929195,-0.18176071,0.7796026
2.3897126,2.2887821,10.230873,2.4766,-26.1568,-33.2206,45.480686,-21.746307,2.8998127,-2.1329322,-0.40921974,0.5451323
2.8869584,2.316465,10.680983,2.7816,-25.9006,-33.7086,45.28116,-20.518925,3.2349656,-2.0504787,-0.48201397,0.39887768
2.664522,2.0995653,11.092935,2.5132,-25.4004,-34.0868,45.376656,-19.357094,3.5685112,-1.7898451,-0.32110393,0.1955668
2.429142,1.9339164,11.254768,2.3424,-24.6562,-34.8432,45.321266,-18.3106,3.8002794,-1.4466082,0.05164376,0.05365888
1.9290532,1.9654151,11.442264,2.4644,-24.2902,-34.9286,45.46869,-17.10728,3.7417848,-0.9285052,0.57928944,-0.06923028
1.2083985,2.1369,11.68939,2.2935998,-23.4484,-35.502,45.58892,-16.430445,3.1726403,-0.40953618,0.92993736,-0.12144028
0.6236147,2.6036944,11.736377,2.1959999,-23.4118,-34.7212,45.545425,-16.320013,2.907057,-0.04330015,1.0656334,-0.0955268
0.2789245,3.14643,11.498827,2.7816,-23.7778,-35.502,45.603996,-16.293911,2.022073,0.24139835,1.0715456,-0.059637632
-0.41606736,3.7484221,11.133562,3.599,-23.3996,-35.6972,45.465244,-16.464546,1.4544618,0.4117678,0.90935314,-0.01292343
-1.1477952,4.2523265,10.7920885,4.0992,-23.4606,-35.599598,45.612076,-16.585712,1.2155416,0.4447592,0.69669944,0.08525134
-1.3278841,4.549133,10.773908,3.7942,-23.4972,-34.4284,45.448296,-16.835611,0.8688653,0.42215982,0.34255418,0.2469108
-1.0806828,4.685378,11.039814,3.3916,-23.3508,-34.7212,45.491173,-17.085205,0.7390657,0.45047146,0.12032446,0.36643586
-0.5348796,4.3094134,11.249007,3.9039998,-23.241,-34.709,45.26511,-17.351978,0.7711136,0.5186026,-0.031958845,0.45694983
-0.16452655,4.0319853,11.585243,3.8551998,-24.2902,-34.440598,45.142193,-17.502577,0.8182302,0.62913454,-0.03424043,0.49700248
-0.015487492,3.8204725,11.961058,3.7698,-23.9242,-34.2454,45.10308,-17.876987,0.9165027,0.8186227,0.047830015,0.5226828
-0.03494038,3.4243817,12.310686,3.1598,-24.302399,-33.964798,44.805397,-18.398314,0.95808744,1.1388606,0.16209246,0.51602125
-0.196549,3.2672622,12.308367,3.4282,-24.949,-33.196198,44.72804,-19.106205,0.9610778,1.4596648,0.19068721,0.5265965
-0.18839374,3.5580082,11.734431,3.2086,-25.2174,-33.001,44.40034,-19.981361,0.9518758,1.7245451,0.249259,0.5657831
0.19901802,3.5301008,10.836381,3.2086,-25.2174,-33.001,44.265152,-20.994705,0.9154917,1.90091,0.36763495,0.61238074
0.034865562,3.7898717,9.962348,2.9036,-25.424799,-33.2084,43.876717,-22.098396,0.83203757,2.061337,0.42600688,0.5291945
-0.17425299,3.9850738,9.070059,2.3668,-26.205599,-32.5374,43.9376,-22.690472,0.78121,2.0881498,0.33664203,0.51915216
1.496376E-4,4.0993223,7.9666314,3.0377998,-26.827799,-31.3906,43.43322,-24.4386,0.7253547,1.9177138,0.04947875,0.5069116
0.11552023,4.200477,7.163676,2.9036,-27.7916,-31.1222,43.42331,-25.464762,0.87787414,1.5688812,-0.21333653,0.49527046
0.46215576,4.0976763,6.751574,2.5254,-27.1572,-30.622,43.323505,-25.901747,0.99291754,1.3642212,-0.22048105,0.49553692
0.6641665,4.05271,6.3438864,2.684,-28.1576,-31.0246,43.35061,-26.66817,1.2239323,1.0676153,-0.084601834,0.43516654
0.32209495,3.9745994,6.123545,1.8177999,-27.4256,-30.0364,43.050674,-27.483114,1.4127765,0.6578792,0.06793128,0.3668855
-0.004938041,4.1932945,6.386084,2.1715999,-28.2796,-29.670399,43.024685,-27.863455,1.5472821,-0.010158882,-0.25074118,0.37156528
0.120458275,4.1862617,7.163676,1.9886,-28.035599,-29.8534,43.145847,-27.844572,1.7926936,-0.3477502,-0.61589473,0.41441578
0.339004,4.1820717,7.93012,2.074,-28.3406,-29.1824,43.111122,-27.63286,2.2358928,-0.62452143,-1.0690308,0.4427607
0.57992053,3.9085343,9.146523,1.7933999,-27.8648,-29.951,43.39152,-27.279133,2.9150944,-0.729874,-1.3904345,0.48379594
1.2253823,3.8510735,9.81084,1.2932,-27.913599,-30.2438,43.45223,-27.07485,3.3368769,-0.63807774,-1.6379782,0.51850265
1.6490064,3.9881415,10.102334,1.2932,-27.913599,-30.2438,43.604218,-26.708733,4.2845516,-0.53703845,-1.6910541,0.5073112
1.8346319,4.19943,10.433183,0.1952,-28.0478,-30.1584,43.913662,-26.57202,4.783101,-0.34536868,-1.7118715,0.46501034
1.5810709,4.327669,10.820969,0.5978,-27.7916,-30.8294,44.112503,-26.408228,5.7680483,-0.029710567,-1.6487366,0.4249077
1.538499,4.485088,10.839299,0.3294,-27.3036,-31.305199,44.48169,-26.431211,6.708291,0.23840065,-1.491507,0.40402374
1.4939818,4.984578,10.328811,-0.0854,-27.5598,-30.927,44.63552,-26.654016,7.508156,0.6701698,-1.0343574,0.3403725
1.2903999,5.327024,9.795651,-1.6958,-27.7062,-30.5366,44.910847,-27.060522,8.098084,0.86378807,-0.695567,0.3003365
1.0543466,5.6153007,8.948254,-2.0008,-27.803799,-30.3414,44.920525,-27.31201,8.302536,0.99032444,-0.3290312,0.3147255
0.7080852,5.5022497,8.47712,-2.7937999,-27.681799,-30.7318,44.871044,-27.857452,8.575895,0.9788832,-0.18257676,0.27855322
0.4849755,5.609465,7.9922194,-2.7937999,-27.681799,-30.7318,45.105743,-29.153168,8.046998,0.9111018,-0.07893951,0.30529937
0.69536597,5.8379617,7.5636573,-1.5372,-28.7554,-30.365799,45.102715,-29.84409,7.812931,0.79157674,0.021067189,0.321004
0.892738,5.8289833,7.2967787,-1.8421999,-28.852999,-30.170599,45.193275,-30.597723,7.7599926,0.6378612,0.12443798,0.31620768
1.0701333,5.6946087,7.069479,-1.8421999,-28.694399,-29.097,45.100285,-30.7959,7.7645226,0.4808482,0.28188398,0.31229404
1.1757027,5.590985,6.861782,-1.8421999,-28.694399,-29.097,44.85819,-31.04743,7.700676,0.3060155,0.59797513,0.2961231
1.164405,5.4905777,6.8260937,-2.2326,-28.657799,-29.585,44.75326,-31.176834,7.4783983,0.20296113,0.86300534,0.27881968
1.1239281,5.390246,6.8868465,-2.1471999,-28.926199,-29.6948,44.55254,-31.206614,7.302633,0.10933288,1.0851018,0.26872742
1.1215339,5.2052937,7.030648,-2.1471999,-28.926199,-29.6948,44.331646,-31.215958,7.0896153,0.045914814,1.1877398,0.26737845
1.0660931,5.057227,7.2335567,-1.2688,-29.3776,-29.011599,44.32653,-31.20645,6.8476214,-0.024814319,1.2500088,0.26769486
1.0795605,5.011139,7.6064534,-1.8299999,-28.657799,-29.975399,43.825016,-31.129436,6.3209414,-0.11008231,1.2630987,0.27603847
1.0716298,4.889708,8.011522,-1.8299999,-28.657799,-29.975399,43.57225,-31.069145,6.05718,-0.14522205,1.227043,0.2866803
1.1064953,4.769549,8.262989,-0.854,-29.036,-29.4996,43.55828,-31.001701,5.8014793,-0.16802125,1.1529998,0.304933
1.1641805,4.6517844,8.482432,-1.3298,-28.4138,-29.2922,43.31264,-30.930742,5.5608864,-0.16935356,1.1092167,0.3090465
1.1385177,4.5289316,8.673594,-1.3298,-28.4138,-29.2922,42.83723,-30.788733,5.113311,-0.14896917,1.0637848,0.31261045
0.95760584,4.484115,8.818967,-1.1345999,-28.657799,-28.9994,42.869823,-30.725748,4.9002786,-0.09079709,1.045249,0.3128769
0.8654291,4.4790277,8.86947,-0.53679997,-28.5602,-29.3898,42.409966,-30.626013,4.479423,-0.059104707,1.0464814,0.3139927
0.7529016,4.4988546,8.918476,-0.53679997,-28.5602,-29.3898,42.18136,-30.592255,4.2693434,-0.025946783,1.0515941,0.31589127
0.678831,4.5296054,8.905757,-0.24399999,-28.7066,-28.9994,42.18136,-30.592255,4.2693434,-0.011741003,1.0571399,0.31915542
0.45317748,4.6526823,8.834005,-0.24399999,-28.9384,-29.8778,41.967484,-30.55288,3.8407202,0.034706738,1.0906808,0.3408055
0.2228104,4.725705,8.78268,-0.24399999,-28.9384,-29.8778,41.48326,-30.542334,3.4045,0.066815466,1.1197419,0.36027393
-0.021921908,4.7902737,8.750359,-0.23179999,-28.548,-29.3898,41.23058,-30.54709,3.1792278,0.10122243,1.1525335,0.37233135
-0.15435119,4.8135424,8.73113,-0.23179999,-28.548,-29.3898,41.237816,-30.559357,2.9496734,0.12640314,1.1696371,0.38037518
-0.26119244,4.9253964,8.74774,-0.0244,-28.365,-29.475199,40.976494,-30.579134,2.7173154,0.14747033,1.1804122,0.3751625
-0.5114613,4.788254,8.789937,0.2562,-28.7066,-29.2922,40.452713,-30.639967,2.245364,0.18454193,1.1513344,0.36910048
-0.5742343,4.727052,8.759636,0.2562,-28.7066,-29.2922,40.462303,-30.678429,2.0055017,0.19443434,1.0986414,0.3730308
-0.59376204,4.723236,8.641273,0.6466,-28.9872,-29.975399,39.966866,-30.759144,1.5540295,0.20177871,0.9792829,0.3624223
-0.6019921,4.738649,8.600496,1.1345999,-29.219,-29.7924,39.966866,-30.759144,1.5540295,0.19841462,0.8826736,0.34743378
-0.56802434,4.7053547,8.5352545,1.1345999,-29.219,-29.7924,39.78648,-30.846478,1.173809,0.19080378,0.72487783,0.32743242
-0.46544778,4.710592,8.54932,1.0613999,-28.67,-29.3898,39.594803,-30.893238,1.0281898,0.1931853,0.5765082,0.31754
-0.393098,4.7899,8.756418,0.45139998,-28.7432,-28.609,39.420525,-30.941029,0.9095026,0.22574368,0.51154137,0.32561713
-0.12187983,4.725406,8.7532015,0.45139998,-28.7432,-28.609,39.38718,-31.059013,0.73736143,0.28966138,0.4822971,0.31254384
-0.12502222,4.649764,8.521712,0.6466,-28.926199,-28.9018,39.242916,-31.141047,0.6642593,0.36615276,0.44324368,0.25303942
-0.2741361,4.620061,8.139388,1.6348,-29.1458,-28.914,38.993195,-31.34337,0.52488434,0.36553657,0.38129115,0.21396936
-0.17717093,4.620435,8.09734,1.6348,-29.1458,-28.914,39.1482,-31.444635,0.4663064,0.33595923,0.28294984,0.19563343
-0.0799813,4.64722,8.185402,0.93939996,-29.097,-29.011599,38.972942,-31.634607,0.39414173,0.32796535,0.14225766,0.18022856
-0.082899235,4.6067433,8.297705,1.037,-29.0604,-28.425999,38.904453,-31.72693,0.381766,0.3334112,0.085667685,0.17724751
-0.035314474,4.553323,8.363994,1.037,-29.0604,-28.425999,39.119843,-31.82119,0.38242936,0.34476915,0.043649886,0.17649809
-0.09763854,4.647295,8.339304,0.6344,-29.097,-28.621199,39.02102,-32.017574,0.41503492,0.37124884,0.016687213,0.17726417
-0.13347675,4.6817865,8.323293,1.0248,-29.511799,-28.5236,38.975334,-32.123783,0.43691948,0.39401475,0.024281394,0.17684782
-0.1583914,4.7389483,8.2608185,1.0248,-29.511799,-28.5236,39.206276,-32.236996,0.45581234,0.42056105,0.049911752,0.17746401
-0.19527708,4.8210244,8.177845,1.3176,-29.6826,-28.535799,39.15543,-32.356277,0.4687039,0.44913915,0.10840026,0.17521574
-0.21435587,4.9044476,8.1093855,1.3176,-29.6826,-28.535799,39.098804,-32.481556,0.47239655,0.46174616,0.15413189,0.17581527
-0.19759646,5.0311155,7.8426566,0.92719996,-29.463,-29.206799,39.23548,-32.742195,0.4476705,0.46252888,0.23680188,0.17423315
-0.19759646,5.0311155,7.8426566,0.92719996,-29.463,-29.206799,39.23548,-32.742195,0.4476705,0.46252888,0.23680188,0.17423315
-0.4564695,5.164817,7.726388,0.52459997,-29.4874,-27.755,39.13369,-33.357002,0.28385785,0.35675994,0.16197588,0.15671325
-0.45706806,5.2174144,7.789535,0.52459997,-29.4874,-27.755,39.068676,-33.459805,0.26633906,0.33356106,0.112214014,0.16455723
-0.338181,5.321787,7.784373,0.6222,-29.4874,-27.6574,39.25493,-33.648647,0.26458195,0.3089799,0.06949674,0.1605603
-0.26306292,5.3651066,7.761104,0.3294,-29.3288,-27.7428,39.206345,-33.735916,0.27296868,0.29732215,0.065266654,0.15306604
-0.25558102,5.3899465,7.4995375,0.61,-29.548399,-27.267,39.372887,-33.972622,0.2759219,0.24209781,0.11827603,0.10763419
-0.3207482,5.3607674,7.241039,0.3294,-29.401999,-27.645199,39.28338,-34.09736,0.24608392,0.15483135,0.17051934,0.08228695
-0.2681506,5.397952,7.1948752,0.8052,-29.828999,-27.5598,39.48693,-34.180157,0.18727216,0.089115046,0.21406929,0.067181855
-0.2617162,5.417031,7.2952824,0.6222,-29.463,-27.3646,39.385483,-34.21617,0.10287123,0.018369257,0.23558614,0.05475804
-0.38112697,5.464466,7.4624276,0.6954,-30.073,-27.181599,39.589165,-34.21587,0.010436528,-0.03590582,0.21928197,0.051577143
-0.53218615,5.4651394,7.585205,1.0857999,-30.329199,-27.376799,39.49894,-34.190723,-0.07185275,-0.060420368,0.1823103,0.052326567
-0.5243302,5.483171,7.654487,1.1101999,-29.7924,-27.1694,39.710896,-34.157597,-0.14057568,-0.061003253,0.1554642,0.053592265
-0.45863926,5.482198,7.646781,0.7198,-29.4508,-27.267,39.84745,-34.057873,-0.28084227,-0.11003235,0.13478005,0.046481047
-0.530615,5.664756,7.7709804,1.3054,-29.7802,-27.267,39.78586,-33.988403,-0.3230184,-0.151384,0.09412787,0.053242534
-0.5257517,5.741221,7.8915133,1.3054,-29.7802,-27.267,40.03476,-33.900597,-0.34904018,-0.17866309,0.060237173,0.06380111
-0.53330845,5.7496004,7.9511437,1.0248,-29.2556,-27.1572,40.011105,-33.85177,-0.35562718,-0.19789836,0.031842265,0.065616384
-0.57243866,5.7997293,8.060529,1.3054,-29.7192,-27.755,40.268345,-33.742306,-0.3548101,-0.21421918,0.012007466,0.06638247
-0.60057056,5.768679,8.196475,0.7076,-29.743599,-27.6574,40.23448,-33.61992,-0.33960754,-0.22571038,-0.007027948,0.064117536
-0.6525696,5.792472,8.302268,0.91499996,-29.7314,-27.6574,40.525852,-33.490166,-0.31047544,-0.23398736,-0.06210241,0.05825536
-0.6331915,5.754314,8.273837,0.8174,-29.6094,-28.4382,40.521786,-33.355473,-0.25606462,-0.24847627,-0.11049866,0.059904095
-0.62084645,5.4999304,8.205379,1.4152,-29.646,-28.1454,40.830643,-33.20983,-0.18690161,-0.27342382,-0.12217305,0.03817075
-0.4802619,5.9028296,8.1447,1.2322,-29.279999,-27.7428,40.841747,-33.05732,-0.13257323,-0.26459724,-0.042917114,0.04581489
-0.38815996,5.9366474,8.082227,0.93939996,-29.0238,-27.645199,40.836372,-32.98379,-0.11812905,-0.25850192,0.017303407,0.039169986
-0.7671172,5.760898,8.133926,0.93939996,-29.0238,-27.645199,41.11485,-32.841732,-0.12624334,-0.24083212,0.13043338,0.0133397775
-0.21136312,5.497087,8.197148,0.6222,-29.4264,-28.230799,41.03108,-32.732677,-0.29193377,-0.10708461,0.58531815,-0.088398926
0.52986676,5.2805614,8.140211,0.6222,-29.4996,-28.0478,41.292683,-32.70699,-0.45283937,-0.0049795173,0.82155377,-0.16224234
0.84028995,4.6562734,8.179416,1.525,-29.3776,-28.1332,41.118015,-32.708076,-0.90317446,0.1110982,1.1821941,-0.31992152
1.1687446,4.5051394,8.437317,1.7324,-29.316599,-28.816399,41.241505,-32.49394,-0.9373059,0.248826,1.3346605,-0.46837443
1.1514614,4.3222075,8.278851,1.8177999,-29.463,-28.230799,41.06319,-32.343616,-1.1228687,0.3518637,1.4833966,-0.597642
0.8367735,4.4701242,8.311321,2.7328,-28.926199,-27.4378,41.20687,-32.434776,-1.7943645,0.49034092,1.6484201,-0.74546206
-0.120533094,4.6629324,8.1990185,3.416,-29.4142,-27.1572,41.07191,-32.730396,-2.8071506,0.61084855,1.6809618,-0.82521766
-1.4853777,5.2037973,8.122628,4.2943997,-29.938799,-27.6574,41.009945,-32.909714,-3.3339016,0.7156016,1.6612604,-0.80385065
-2.4142532,5.6769514,7.8249245,4.2943997,-29.8046,-26.9742,41.175114,-33.319603,-4.5532813,0.77189183,1.6714525,-0.6945178
-2.7275944,5.9486933,7.5489926,4.9044,-29.7802,-27.0718,40.96296,-33.997196,-6.571367,0.78168434,1.6666895,-0.6086336
-2.4550295,6.2062945,7.2713404,5.7706,-30.2682,-26.9742,40.950947,-35.223354,-8.935112,0.75385565,1.6878732,-0.5306101
-2.3183355,6.370447,7.2435822,5.7706,-30.2682,-26.9742,40.637623,-35.760464,-9.921448,0.70475996,1.4574165,-0.48591098
-1.8425627,6.1955953,7.045462,6.4049997,-29.5728,-26.1812,40.768623,-36.21899,-10.753058,0.5801221,1.303268,-0.47480282
-1.4685434,6.0662336,7.4553943,6.5636,-30.4268,-25.7176,40.66183,-36.40236,-11.123555,0.5062121,1.0559075,-0.51110834
-1.6745944,5.713089,6.258892,7.1735997,-30.2316,-25.9006,40.94441,-36.705364,-11.768666,0.38721994,0.90270823,-0.55049485
-1.4802152,5.4767365,5.4766617,8.0764,-30.0852,-25.510199,40.756138,-37.006832,-12.855034,0.09785835,1.5316429,-0.692919
-2.2358851,5.707852,5.567866,8.2716,-30.2316,-25.119799,41.046467,-37.05105,-13.316277,-0.031159457,1.4379814,-0.72564393
-5.7249103,6.5598135,6.833351,7.8812,-29.9632,-24.827,40.752453,-37.60473,-15.198754,-0.18012863,0.9846288,-0.6217402
-7.3198977,7.270143,7.5975504,9.1866,-29.8168,-24.7172,41.128338,-37.501057,-15.824385,-0.31798965,0.26494697,-0.28779614
-6.666879,7.501034,7.5899186,9.3696,-30.170599,-25.0222,41.17283,-37.304333,-16.01913,-0.41683057,-0.17626493,-0.041701376
-4.7562313,7.570017,7.537321,9.698999,-29.585,-25.7908,41.65048,-37.021317,-15.9076805,-0.5217835,-0.33212882,0.16942017
-2.9722517,6.7254624,7.7820535,9.2964,-29.5728,-25.3028,41.669323,-36.867653,-15.804077,-0.5732274,-0.4202613,0.16340812
-2.3897874,5.9724855,8.123976,9.1133995,-29.2312,-25.4858,41.73293,-36.5315,-15.564011,-0.5868503,-0.5284284,0.093211904
-2.249128,5.160477,8.559794,9.1133995,-29.2312,-25.4858,42.290356,-36.14919,-15.292303,-0.5716786,-0.66200936,0.0025813552
-2.180145,4.7396216,8.91511,9.2109995,-29.1702,-25.8762,42.52685,-35.75455,-14.980294,-0.53057677,-0.73460376,-0.049079057
-2.0126257,4.745158,9.017013,8.5034,-29.2678,-25.583399,43.244408,-35.32781,-14.641358,-0.4331181,-0.7501918,-0.10735107
-1.7626562,4.797681,9.089736,9.0157995,-29.0238,-26.4618,43.56746,-34.97952,-14.324637,-0.29089376,-0.63769466,-0.19132006
-1.7120787,4.739547,9.25157,8.8084,-29.243399,-26.8522,44.282753,-34.72878,-14.1123705,-0.121190466,-0.4499219,-0.28080148
-1.9120693,4.735282,9.376292,8.6254,-28.8774,-26.5472,44.56424,-34.6118,-14.020814,0.06465046,-0.2744064,-0.34918243
-2.3362172,4.945897,9.302521,8.7962,-29.5728,-26.3764,45.220562,-34.610653,-14.039826,0.24088208,-0.104186825,-0.38458863
-2.953098,5.2880435,9.030629,8.9304,-28.975,-26.949799,45.423637,-34.727325,-14.143031,0.43458363,0.111631125,-0.3811579
-3.4153287,5.556718,8.703073,9.028,-28.9384,-26.364199,45.974464,-34.934673,-14.330117,0.56087023,0.27340716,-0.34070557
-2.9611037,5.6657286,8.300997,9.7112,-29.0726,-26.2666,46.060818,-35.417645,-14.697933,0.6732008,0.33294487,-0.30519947
-2.1945102,5.5921817,7.880814,9.7112,-29.0726,-26.2666,46.510735,-35.790222,-14.952746,0.72163033,0.26799464,-0.3602906
-2.005069,5.486463,7.623737,9.796599,-29.4142,-26.0714,46.59643,-36.17763,-15.195691,0.72302926,0.22682619,-0.42500764
-2.1250784,5.4890065,7.140108,9.5892,-29.5606,-25.4004,47.150894,-36.539055,-15.448255,0.68920517,0.19583327,-0.5041803
-2.3790884,5.5520787,6.8604355,10.4798,-29.9632,-25.2052,47.323235,-36.882595,-15.709822,0.64520556,0.17345043,-0.5533093
-2.8778305,5.6728363,6.752696,10.37,-29.9266,-24.6196,47.939713,-37.1812,-15.978219,0.59307885,0.12736906,-0.5598543
-3.359065,5.9489927,6.7987847,10.6018,-29.316599,-24.9002,48.691322,-37.576065,-16.335352,0.5355063,0.009459418,-0.5093097
-3.596914,6.3934913,6.9255276,10.6018,-29.4142,-25.192999,48.917046,-37.8407,-16.531559,0.4711556,-0.14835298,-0.39634627
-3.5496285,6.5444007,7.091551,10.4676,-30.0852,-24.338999,49.69126,-38.149902,-16.65531,0.4420113,-0.22932427,-0.32055435
-3.1829414,6.5366197,7.247847,10.98,-29.8046,-24.4244,49.917793,-38.333244,-16.654428,0.41951185,-0.25793567,-0.2516405
-2.754903,6.2793927,7.3075523,10.4676,-30.0852,-24.2414,50.73569,-38.679325,-16.618914,0.40019333,-0.16605608,-0.21568473
-2.616189,6.1713543,7.336582,10.4676,-30.0852,-24.2414,51.326164,-38.85441,-16.635548,0.4076876,-0.09446095,-0.21876569
-2.645144,6.09257,7.444022,11.0898,-29.597198,-24.1316,51.940117,-39.150204,-16.718033,0.4476403,-0.019535031,-0.23333786
-2.7730093,6.216096,7.3815484,11.0654,-30.2438,-24.4366,52.048206,-39.378475,-16.80173,0.47270444,0.043366767,-0.23178905
-2.783858,6.2868743,7.3810244,11.0654,-29.938799,-23.753399,52.560707,-39.618896,-16.92012,0.49513724,0.14215773,-0.23408729
-2.9103765,6.2410107,7.4265146,11.4558,-30.3414,-23.2654,52.62925,-40.026417,-17.152428,0.5167207,0.20450996,-0.23029019
-3.0114567,6.1892357,7.39943,11.370399,-29.9876,-23.362999,53.079136,-40.306473,-17.331879,0.5304768,0.24346344,-0.2202479
-2.9128456,6.0688524,7.1725793,11.773,-29.768,-22.7652,53.07362,-40.60816,-17.52314,0.52541405,0.31224406,-0.20349406
-2.7246015,5.9118075,6.9358525,11.3582,-30.195,-23.851,53.47179,-40.906544,-17.737667,0.5052795,0.36500365,-0.21053867
-2.5407717,5.610288,6.7615995,11.1508,-30.292599,-22.1918,53.850437,-41.342964,-18.109472,0.4709058,0.45058805,-0.24865945
-3.2651675,5.6041527,4.9919853,12.0658,-29.975399,-23.6436,53.766953,-41.633022,-18.417881,0.40968606,0.71501875,-0.26506355
-3.6049943,5.822175,5.1401267,12.3586,-29.975399,-22.2894,53.870766,-42.021515,-19.114027,0.13453025,0.9438101,-0.2318057
-3.8800282,6.002638,5.2923827,12.3586,-29.975399,-22.2894,53.60348,-42.181644,-19.589344,0.010641845,0.7292245,-0.2040603
-4.2416277,6.145317,6.1831007,12.5538,-30.133999,-22.0942,53.892315,-42.231495,-19.956612,-0.1575959,0.2486428,-0.10986581
-4.2342954,6.2439284,6.87091,12.261,-29.8778,-21.9966,53.850067,-42.22349,-20.100277,-0.2104887,-0.036305513,-0.06410088
-4.074183,6.405911,8.092551,12.7612,-29.828999,-21.691599,54.402863,-42.013615,-20.101528,-0.16345808,-0.4586985,-0.018435873
-4.0017586,6.4222217,8.538696,12.7612,-29.828999,-21.691599,54.606033,-41.85656,-19.907648,-0.062668644,-0.63642895,-0.0066948696
-3.8332665,6.389451,8.529643,12.566,-29.6582,-21.594,55.333252,-41.745163,-19.626595,0.103021055,-0.729874,-0.003847052
-3.564667,6.291139,8.189666,12.151199,-30.1828,-22.5822,55.631813,-41.73485,-19.319767,0.27677125,-0.7278589,-0.017153522
-3.1119385,6.17921,7.625607,11.9682,-29.7314,-22.3748,56.393776,-41.814396,-19.03111,0.41954517,-0.6652902,-0.050444677
-3.0630069,6.066458,6.9109383,11.955999,-29.9876,-22.1918,56.676613,-41.97401,-18.792557,0.49137345,-0.52130055,-0.111847624
-3.1842883,6.1513777,6.3804727,11.9438,-30.3536,-22.2894,57.518036,-42.25948,-18.55283,0.46590963,-0.4198949,-0.13935988
-3.3566709,6.231658,6.2138515,11.858399,-30.097399,-22.387,57.633278,-42.353577,-18.491695,0.41156796,-0.40439013,-0.13547951
-3.3566709,6.231658,6.2138515,11.858399,-30.097399,-22.387,57.633278,-42.353577,-18.491695,0.41156796,-0.40439013,-0.13547951
-3.083283,6.5276413,5.9874496,10.675,-29.7558,-21.7038,59.603043,-42.467155,-17.72293,-0.2090065,-0.7632984,0.005395865
-2.8132617,6.435689,6.0092964,10.4676,-29.7802,-22.0942,60.53589,-42.09963,-17.230646,-0.4484064,-0.8109452,0.04869602
-2.693028,6.3610945,6.1121726,10.4798,-29.6948,-22.1796,60.687286,-41.934147,-17.0513,-0.54521555,-0.8418049,0.06956336
-2.657938,6.298097,6.275053,10.5774,-29.524,-22.3748,61.620644,-41.32202,-16.471174,-0.6573296,-0.87817705,0.1064018
-2.6284595,6.2422075,6.378228,10.492,-29.4874,-23.253199,61.766933,-41.092804,-16.264189,-0.7248945,-0.8648206,0.13116616
-2.614992,6.2507367,6.5060935,10.492,-29.4874,-23.253199,62.510017,-40.59222,-15.847833,-0.77871996,-0.7951573,0.15982753
-2.6746974,6.2521586,6.9164,9.5892,-29.353199,-23.1556,62.718002,-40.08528,-15.460412,-0.8271328,-0.6240718,0.21102163
-2.5554361,6.2482677,7.324836,9.796599,-29.4874,-24.2292,63.38131,-39.3224,-14.950856,-0.82768244,-0.5344904,0.2494755
-2.4203882,6.1847467,7.5471225,9.991799,-29.5728,-24.3268,63.423534,-39.076584,-14.787113,-0.81350994,-0.54568183,0.27943587
-2.2266076,6.1463647,7.698331,9.2354,-28.6456,-24.497599,63.970673,-38.58568,-14.4513035,-0.7964064,-0.58282006,0.29144335
-2.0413563,6.030171,7.740978,9.2354,-28.6456,-24.497599,64.05068,-38.113567,-14.084285,-0.77592206,-0.62035793,0.2953903
-1.8930653,5.880459,7.801357,9.1256,-28.67,-24.887999,64.618324,-37.645653,-13.70331,-0.7487429,-0.6158614,0.280152
-1.7001824,5.8383355,7.901165,9.028,-28.8774,-25.388199,64.66207,-37.424484,-13.516795,-0.70247835,-0.52971077,0.254455
-1.628955,5.8268137,7.9759088,8.8328,-28.730999,-25.6688,65.23499,-36.801014,-13.037871,-0.6271361,-0.3569265,0.2200314
-1.7298856,5.7594767,7.9369283,8.7352,-28.5602,-25.864,65.2386,-36.458958,-12.834205,-0.545915,-0.1563302,0.18597415
-1.7042227,5.578116,7.9699235,8.6254,-28.852999,-26.0592,65.67015,-36.165928,-12.727645,-0.46454403,-0.0013489663,0.17046937
-1.5443349,5.449951,8.075643,8.7352,-28.7432,-25.9616,65.58843,-35.932556,-12.672755,-0.38443875,0.031709034,0.15281624
-1.3425486,5.2923827,8.368184,9.028,-28.7066,-25.4736,65.99301,-35.721733,-12.610356,-0.2899778,-0.062185682,0.120224535
-1.3420997,5.294852,8.491261,8.54,-28.584599,-26.0592,65.96804,-35.543133,-12.50211,-0.21844926,-0.16818778,0.095227025
-1.3510779,5.3271737,8.569896,9.0402,-28.5602,-26.0592,66.46487,-35.39623,-12.374684,-0.16325822,-0.22407828,0.071062215
-1.5200937,5.43394,8.611046,9.0402,-28.5602,-26.0592,66.507286,-35.29263,-12.243043,-0.115977794,-0.2320222,0.06101991
-1.7933319,5.4795046,8.764798,8.3692,-27.9868,-26.3398,67.036095,-35.20909,-12.112652,-0.07863974,-0.27828676,0.06296841
-2.3942018,5.558364,9.00968,8.552199,-28.230799,-26.046999,67.11036,-35.160324,-11.935753,-0.017086906,-0.44051245,0.103737175
-1.8867058,5.7612724,9.199047,8.0398,-28.548,-26.5472,67.70643,-35.12447,-11.652462,0.044632465,-0.81725705,0.15959437
-1.4009073,5.745336,9.005416,8.052,-28.4504,-26.4496,68.00714,-35.0991,-10.995819,0.04887921,-0.95943147,0.16109322
-1.0320506,5.593753,8.704719,7.1614,-28.072199,-26.9254,68.728966,-35.07038,-10.500857,0.041951187,-0.9487563,0.12786868
-0.80684596,5.423615,8.294039,7.0638,-28.1454,-26.535,68.9831,-35.04391,-10.027732,0.03369085,-0.82694966,0.058621746
-0.78200614,5.321936,8.015039,6.6612,-28.0966,-26.827799,69.71268,-35.00046,-9.592984,0.020867342,-0.7220467,0.017902948
-0.68219787,5.390246,7.835474,6.5513997,-28.548,-27.0352,70.521164,-34.944897,-9.132598,-0.010008996,-0.5061788,-0.03450689
-0.7457938,5.4663367,7.834651,6.5513997,-28.4016,-27.5232,70.61211,-34.927025,-9.0188,-0.027645482,-0.4161811,-0.052642994
-0.9238626,5.5539494,7.81243,6.5636,-28.2796,-27.0352,70.772705,-34.88595,-8.840437,-0.04593147,-0.33461025,-0.06931355
-1.0144682,5.5964465,7.766117,6.3684,-27.9868,-27.998999,71.401794,-34.83076,-8.705764,-0.055157732,-0.29845464,-0.066682234
-1.0623522,5.6664767,7.7250414,6.3684,-27.9868,-27.998999,71.46521,-34.80602,-8.646726,-0.055923812,-0.2673118,-0.053508997
-1.0320506,5.689222,7.627328,6.5513997,-28.4382,-26.5472,72.069084,-34.750443,-8.5363,-0.052476455,-0.2515239,-0.04464912
-1.006687,5.683311,7.5809402,6.527,-29.011599,-27.3402,72.17164,-34.707092,-8.431736,-0.04768013,-0.2326384,-0.03685509
-1.0256909,5.6414127,7.600019,6.7465997,-28.4382,-26.6448,72.747025,-34.659245,-8.335435,-0.047197167,-0.20417687,-0.027645482
-1.1272949,5.6052003,7.6577044,6.3684,-27.913599,-26.535,72.82547,-34.62131,-8.247785,-0.04688074,-0.18943816,-0.010325421
-1.2197709,5.6646066,7.712771,6.2585998,-28.303999,-27.1328,73.40236,-34.56115,-8.118068,-0.049112365,-0.18375918,0.014588821
-1.1293899,5.7330656,7.706262,6.6489997,-28.4504,-26.9376,73.95893,-34.498158,-7.974305,-0.069047086,-0.18659034,0.038620405
-1.13964,5.7210946,7.6547866,6.161,-28.2918,-26.84,74.01534,-34.4238,-7.8255076,-0.10090601,-0.1690871,0.04721382
-1.1369466,5.668572,7.6346602,6.2585998,-28.389399,-27.1328,74.540825,-34.352245,-7.7315416,-0.12803522,-0.16092668,0.051926874
-1.0352678,5.649867,7.6105685,6.3561997,-28.3162,-27.5232,74.56726,-34.276585,-7.638907,-0.14913572,-0.15195023,0.053242534
-0.90538234,5.618294,7.671546,6.2585998,-28.230799,-27.413399,75.08724,-34.13267,-7.514948,-0.1780469,-0.09377814,0.043083653
-0.9463082,5.5802107,7.953164,6.2585998,-28.389399,-27.1328,75.5792,-34.024532,-7.471878,-0.17959571,0.01978484,0.018602412
-1.2055553,5.572355,8.40103,6.161,-28.4504,-28.0112,75.55124,-33.884388,-7.4861927,-0.14110854,0.05117745,0.008260337
-1.2849381,5.6811414,8.8156,6.1488,-28.609,-27.7184,76.03213,-33.807705,-7.494356,-0.08033843,-0.073077336,0.015604709
-1.2030864,5.4660373,9.275436,5.856,-28.5602,-28.108799,76.6275,-33.73563,-7.291183,0.066549,-0.34671766,0.022715926
-0.53704935,5.2276645,9.2286005,5.8682,-28.194199,-27.998999,77.3148,-33.780426,-6.9946117,0.14965199,-0.5743432,-0.009142994
-0.27166706,5.121123,9.041478,5.4656,-28.182,-27.413399,77.52815,-33.84698,-6.7018647,0.19954708,-0.7177833,-0.05962098
-0.142455,5.009044,8.66918,5.4656,-28.182,-27.413399,78.30334,-33.88716,-6.3328395,0.24088208,-0.7256273,-0.118109494
-0.1488146,5.0146556,8.341847,5.2704,-28.230799,-28.0966,78.45322,-33.88735,-6.10721,0.26904383,-0.646821,-0.1575626
-0.3083283,5.142521,7.980473,5.0508,-28.6334,-27.1328,79.235664,-33.98786,-5.8266444,0.30481642,-0.49575344,-0.19931394
-0.5636849,5.3036804,7.8582187,5.4656,-28.2796,-27.7184,79.48577,-34.136112,-5.660517,0.31740677,-0.40294123,-0.21568473
-0.8698434,5.604527,7.754071,5.246,-28.7432,-27.8282,80.20636,-34.290886,-5.5484934,0.31770656,-0.3482498,-0.198348
-1.012897,5.927445,7.6850133,5.551,-28.548,-27.6208,80.30892,-34.372032,-5.497726,0.29229268,-0.36390448,-0.16542323
-1.0865935,6.162301,7.6609964,5.7462,-28.816399,-27.9258,80.50449,-34.532116,-5.3847203,0.24088208,-0.38182408,-0.130933
-1.3178585,6.3046813,7.7205524,5.5388,-28.792,-27.3402,81.178894,-34.66709,-5.2541685,0.19251914,-0.3885023,-0.098041534
-1.548001,6.452972,7.778911,5.551,-28.584599,-28.303999,81.34699,-34.77285,-5.108342,0.13268165,-0.4277389,-0.035406202
-1.6992847,6.4606037,7.726089,5.2581997,-28.389399,-27.7184,81.98811,-34.84475,-4.92526,0.05634016,-0.5458817,0.05825536
-1.280075,6.2426567,7.6326404,6.0146,-29.3044,-27.3524,82.68846,-34.920563,-4.547775,-0.013073315,-0.65712976,0.12104058
-0.47255555,5.936797,7.5335803,5.9414,-28.779799,-27.4378,82.85475,-34.899685,-4.1860147,-0.09644277,-0.7483432,0.124004975
0.2959832,5.5373397,7.4107275,5.429,-29.0238,-28.121,83.515945,-34.813854,-3.797287,-0.19391806,-0.7213472,0.07296076
0.3784335,5.246145,7.2116346,4.9288,-29.048199,-28.2186,83.82051,-34.61103,-3.2873974,-0.2738901,-0.6043702,-0.019518377
0.38030398,5.2913356,7.0646157,5.1484,-28.6822,-28.303999,84.49063,-34.428802,-3.0399277,-0.35279632,-0.401076,-0.09128005
0.32650927,5.255572,7.3090487,4.3431997,-28.792,-27.9258,85.22215,-34.09277,-2.8494723,-0.42122722,-0.2077075,-0.15088437
0.5484218,5.0803466,7.83712,5.246,-28.8042,-28.792,85.35826,-33.841568,-2.8135803,-0.4407789,-0.12598678,-0.20534265
0.65653497,4.986823,8.189517,4.4774,-28.0966,-28.2918,86.056404,-33.422226,-2.7216833,-0.41183442,-0.021733345,-0.26834437
0.43581954,4.842797,8.2833395,5.368,-28.1698,-28.6822,86.183754,-33.13673,-2.711535,-0.34666768,0.23077317,-0.3309131
0.36137483,5.047725,8.211588,5.1605997,-28.4138,-28.2064,86.77023,-32.826298,-3.0474994,-0.25238994,0.5828867,-0.40024328
-1.0765678,5.3891983,8.340501,4.9653997,-28.2552,-28.4016,87.2252,-32.661125,-3.7472098,-0.079339206,0.92244315,-0.37501264
-2.020856,5.7466826,8.125173,5.4656,-28.4504,-29.084799,87.100464,-32.64702,-4.33498,0.021849923,1.049629,-0.3440197
-3.16708,6.2248497,7.6712465,6.466,-28.108799,-28.584599,87.43313,-32.76945,-5.1524386,0.09860777,0.963978,-0.21743338
-1.5708208,6.2866497,7.710003,6.4782,-27.8282,-28.2918,87.53282,-33.24053,-6.4378667,0.06103656,0.48089814,-0.10045636
-0.71923316,5.6492686,7.8558993,6.3806,-27.9258,-28.487,87.43929,-33.30804,-6.6891074,0.04251742,0.19113687,-0.15832867
-0.38337156,5.0644097,7.811607,6.4782,-27.803799,-27.9014,88.029655,-33.332207,-6.861378,0.043483347,-0.046730857,-0.2707592
-0.57400984,4.9597383,7.842357,7.0759997,-28.06,-28.2918,88.70936,-33.332832,-6.9178357,0.065033495,-0.14680417,-0.37417993
-1.1407623,5.021314,8.568997,6.9662,-28.072199,-28.2918,89.060295,-33.360065,-6.9876757,0.14259073,-0.18114452,-0.4196451
