@ HyperIMU - ianovir
@ Date:Tue Mar 31 16:32:08 EDT 2026, Sampling Rate:5ms

icm45631_accelerometer.x,icm45631_accelerometer.y,icm45631_accelerometer.z,mmc5616_magnetometer.x,mmc5616_magnetometer.y,mmc5616_magnetometer.z,orientation_sensor.x,orientation_sensor.y,orientation_sensor.z,icm45631_gyroscope.x,icm45631_gyroscope.y,icm45631_gyroscope.z
-1.9371337,7.7481604,6.8306575,-0.56119996,-29.048199,1.8665999,165.496,-57.355827,-9.086039,0.6243715,-0.66364145,-0.5670988
-1.9371337,7.7481604,6.8306575,-0.56119996,-29.048199,1.8665999,165.496,-57.355827,-9.086039,0.6243715,-0.66364145,-0.5670988
-1.9371337,7.7481604,6.8306575,-0.56119996,-29.048199,1.8665999,165.496,-57.355827,-9.086039,0.6243715,-0.66364145,-0.5670988
-2.1527615,6.7376575,6.315455,1.2932,-29.9144,2.3424,168.07372,-57.489754,-10.131864,-0.22506087,-0.36776817,-0.5971424
-2.5305216,6.2731824,6.761001,1.9886,-29.89,2.2447999,168.642,-57.03162,-10.444277,-0.07774043,-0.3181229,-0.49203962
-2.7973254,6.222979,6.5268183,2.0008,-29.8046,2.0496,169.1339,-56.729324,-10.709299,0.03663859,-0.31987154,-0.37398008
-2.965144,6.3090954,6.192977,1.5128,-29.548399,2.257,169.41425,-56.662853,-10.807865,0.10541922,-0.35234666,-0.271875
-3.0615106,6.470704,5.825018,2.0983999,-29.865599,2.5376,169.67502,-56.65459,-10.839629,0.13767783,-0.39726225,-0.16372454
-2.7246764,6.6890254,5.4179287,1.9031999,-29.6948,2.6352,170.0429,-56.6914,-10.750636,0.12508748,-0.53400743,-0.006628254
-2.4271219,6.7522473,5.305925,1.9031999,-29.6948,2.6352,170.30014,-56.71441,-10.599371,0.0923126,-0.61497873,0.026712863
-2.0573676,6.8230257,5.2793646,1.9886,-29.865599,2.7328,170.44228,-56.71658,-10.500857,0.03685509,-0.7088235,0.040452335
-1.6994343,6.865523,5.6600423,2.4034,-29.524,2.0618,171.103,-56.627598,-10.025148,-0.093578294,-0.74722743,0.008759954
-1.5855601,6.8054433,6.0184245,2.2935998,-29.9876,1.7567999,171.63127,-56.449516,-9.673106,-0.20367725,-0.63729495,-0.021533499
-1.5938649,6.774618,6.2309847,2.2935998,-29.9876,1.7567999,171.95285,-56.262703,-9.4785185,-0.26414758,-0.5559406,-0.044799004
-1.6415246,6.4763155,6.6290956,2.4888,-29.89,1.8543999,172.3579,-55.83844,-9.2824335,-0.39862788,-0.30143568,-0.046081353
-1.5027356,6.3362546,6.8708353,1.5982,-29.865599,1.2688,172.6086,-55.305103,-9.179813,-0.48178083,-0.1030044,0.0042967075
-1.3856442,6.308347,7.0738187,1.9886,-30.0364,1.0735999,172.69661,-54.84611,-9.139422,-0.5051629,-0.008909839,0.031459227
-1.2482021,6.327202,7.421427,1.9886,-30.0364,1.0735999,172.7805,-54.04303,-9.081232,-0.49560356,0.071978174,0.04666424
-1.1145757,6.3376017,7.7965684,2.0862,-30.1218,1.0735999,172.81046,-52.948086,-8.9981575,-0.4205777,0.18324292,0.028228369
-1.0839748,6.223054,7.7601314,1.9642,-30.5854,0.8662,172.7547,-52.485287,-9.004371,-0.30813053,0.22119716,-0.016187595
-1.4242507,6.205696,7.40347,-0.305,-30.060799,1.0735999,172.74818,-51.401978,-9.0154085,-0.18644047,0.21730015,-0.048079822
-1.7209821,6.24116,7.100828,1.1956,-30.060799,1.3664,172.75378,-50.444546,-9.178694,-0.14816979,0.21205416,-0.032724924
-1.6269349,6.3223386,6.6893997,1.7811999,-30.378,1.5494,172.70065,-50.18835,-9.297166,-0.16940352,0.20654173,-0.010142228
-1.498097,6.4015718,6.633136,2.1959999,-29.8534,1.0735999,172.57417,-50.045593,-9.417865,-0.2857477,0.22366194,-0.03224196
-1.4645033,6.433145,6.800431,1.6104,-29.633799,0.793,172.48921,-49.903843,-9.507786,-0.40322435,0.29032752,-0.0501116
-1.4639047,6.471452,6.8743515,1.6104,-29.633799,0.793,172.38937,-49.707672,-9.624344,-0.46008077,0.32258615,-0.06964663
-1.4949545,6.5096846,7.0388036,2.0862,-30.3536,0.28059998,172.2247,-49.316475,-9.844424,-0.5171204,0.32002142,-0.11414586
-1.4061446,6.3787518,7.054291,2.1838,-30.2682,-0.0,172.13905,-48.999302,-10.006364,-0.54095215,0.27445635,-0.18484169
-1.3689597,6.280814,6.898443,1.8909999,-30.073,0.48799998,172.08795,-48.674362,-10.180296,-0.55797243,0.2562203,-0.22640984
-1.374197,6.2422824,6.6130843,2.1715999,-30.7318,-0.305,172.07004,-48.1858,-10.472453,-0.64374006,0.1750492,-0.30266806
-1.4532056,6.1807814,6.300716,2.1715999,-30.4268,0.28059998,172.11769,-47.80377,-10.666083,-0.7787532,0.05560739,-0.36890066
-1.7057191,5.892729,6.029273,2.684,-30.2682,-0.3904,172.30853,-47.09027,-10.924859,-0.9877431,-0.14015926,-0.43043682
-1.8014123,5.8219504,6.1229463,2.5864,-30.2072,-0.7808,172.52625,-46.497448,-11.05548,-1.1107655,-0.26874405,-0.44777355
-1.6831238,5.5136223,6.5190372,2.6962,-30.024199,-0.87839997,173.00677,-45.40355,-11.1369095,-1.3803589,-0.53910357,-0.480665
-1.4567969,4.9543514,7.393295,2.8792,-30.6098,-1.9642,173.43018,-44.52602,-11.111574,-1.5695473,-0.6527831,-0.54046917
-1.3911809,4.2495584,9.114427,3.9772,-30.7074,-3.0256,174.63574,-41.356506,-10.820354,-1.7148026,-0.5578225,-0.6559473
-1.3819033,4.0342298,9.725322,3.6966,-30.219398,-3.5014,175.43112,-39.513268,-10.767852,-1.6700202,-0.47771725,-0.6905375
-1.4190134,3.927164,10.219725,3.6843998,-30.7074,-4.3919997,176.15999,-37.9552,-10.819948,-1.510276,-0.41976166,-0.7284918
-1.4267945,3.807529,10.014571,3.965,-31.073399,-4.7946,177.14212,-36.101776,-10.934119,-1.2519573,-0.47508594,-0.7721583
-1.4192379,3.7581484,9.588329,5.5022,-30.170599,-5.6486,177.6764,-35.27185,-10.960608,-1.135663,-0.59745884,-0.8054494
-1.2499977,3.6672437,8.702773,5.2704,-30.9026,-6.0512,178.38826,-33.874863,-10.75962,-1.1353467,-0.99094063,-0.8841392
-1.4517093,4.0411882,8.629451,5.6974,-30.414598,-7.015,179.56718,-32.32401,-10.3731985,-1.159628,-1.129601,-0.9111851
-1.7030256,4.0569,8.7261915,6.2952,-30.487799,-7.4054,180.36427,-31.463247,-10.09824,-1.1630588,-1.1056194,-0.87919295
-1.6079309,3.941679,8.874258,6.2098,-30.1462,-7.4908,181.52533,-30.199694,-9.66433,-1.1883228,-1.2535727,-0.8377913
-1.2062287,3.6783917,8.952818,6.7222,-30.012,-8.7596,182.31422,-29.330097,-9.286282,-1.2541556,-1.479766,-0.8144259
-0.6313959,3.342081,9.270798,6.4294,-29.8412,-8.6498,184.07108,-26.809595,-7.8245482,-1.3407559,-1.7409658,-0.7649638
-0.42781392,3.1509938,9.491813,7.1247997,-29.9144,-8.9426,184.9662,-25.458445,-6.83827,-1.3831401,-1.8201219,-0.68354285
-0.2423381,2.9049149,9.783232,7.2346,-29.9144,-10.5042,186.16748,-23.90152,-5.5248013,-1.386754,-1.7926097,-0.54358345
-0.8722376,3.0124295,10.071958,8.0398,-29.646,-11.2727995,186.85315,-23.018265,-4.699746,-1.3400898,-1.5775079,-0.35296285
-1.2638392,3.1758337,10.379613,7.5518,-29.6582,-12.5416,187.60815,-21.83045,-3.5972981,-1.207608,-1.1426743,-0.013789433
-0.65885437,2.510919,10.290354,7.0394,-29.8046,-13.1394,187.87566,-20.822325,-2.7035604,-0.9971859,-1.0205014,0.44429287
-0.27742812,2.3110032,10.507029,7.0394,-29.9144,-13.627399,187.82089,-19.981237,-1.730753,-0.76441425,-1.3490995,0.7396166
0.16519992,2.0134487,10.7472725,6.6734,-29.243399,-14.091,187.54472,-19.133387,0.0130008375,-0.4970691,-1.6329653,0.8890021
0.80340433,1.669806,10.6515045,6.5636,-29.316599,-13.6152,187.37007,-18.856703,1.0612775,-0.23432045,-1.7797695,0.92454153
1.3388077,1.5251813,10.61993,6.0878,-28.8286,-13.9934,187.12335,-18.660717,2.7472732,0.05532427,-1.7863644,0.8737638
1.813533,1.5511434,10.643424,4.575,-29.279999,-14.4936,186.97902,-18.69326,3.8649468,0.38530475,-1.6294847,0.7704763
2.3409307,1.8293946,10.844761,4.4652,-29.5606,-14.5912,186.81012,-19.026882,5.365678,0.7536891,-1.2708095,0.60951626
2.690933,2.100912,10.988263,3.6843998,-29.0238,-14.0056,186.69171,-19.73822,6.426315,1.2872136,-0.4416116,0.3010693
2.8613703,2.6078842,11.037495,3.8795998,-29.316599,-14.6888,186.58759,-20.841246,6.8255873,1.6606774,0.26799464,0.04666424
2.947412,2.672453,10.781315,3.355,-29.7802,-12.8466,186.50763,-21.785673,6.660692,1.9907079,1.0159714,-0.25360566
2.6443958,2.8761845,10.411261,3.9284,-30.0364,-11.6876,186.37794,-23.48243,5.760731,2.3551953,1.5887159,-0.5349734
2.1499183,3.1950622,10.244565,4.0382,-29.706999,-10.6018,186.28291,-24.788935,4.850058,2.5476477,1.7806189,-0.6658398
1.0532991,3.7900212,9.39178,4.5262,-29.902199,-9.638,186.13045,-27.690641,2.789446,2.7360535,1.3021854,-0.7593348
0.13901334,4.2846484,8.85518,5.124,-29.865599,-7.8812,186.13779,-28.458727,2.3466613,2.7836003,0.84060585,-0.73833424
-0.42467153,4.6219316,8.272117,5.9414,-29.4996,-6.7953997,186.3498,-31.608444,1.023082,2.781019,0.588549,-0.6704862
-0.76427406,4.9482913,7.7556424,5.8194,-29.7192,-5.9291997,186.57625,-33.960968,0.36093196,2.6658406,0.20712462,-0.5456319
-0.9828198,5.2573676,7.3550625,6.3073997,-29.89,-4.6604,186.77516,-35.47293,0.10162515,2.4750202,-0.17001972,-0.42880476
-0.92663085,5.5854483,6.8913355,6.6368,-29.206799,-3.7698,187.17255,-37.562695,0.01774291,2.1412258,-0.5521602,-0.3102789
-0.71953243,5.8295817,6.6059766,6.344,-28.779799,-2.2082,187.67287,-39.368397,0.22514346,1.8086474,-0.6913869,-0.23943318
-0.36631286,6.1403046,6.5821843,6.3561997,-28.5114,-2.0983999,188.20322,-40.839558,0.54438275,1.3595248,-0.57978904,-0.17703101
0.0016460137,6.410924,6.900239,6.7588,-28.243,-0.92719996,188.77747,-42.300297,0.86488545,0.9572498,-0.3540953,-0.1710689
0.16026187,6.5205336,7.4116254,6.7588,-28.4016,-2.1959999,189.0986,-43.072975,0.9581583,0.7019621,-0.1469041,-0.24970865
0.05117606,6.445041,7.552883,6.9783998,-28.0234,-1.9886,189.38824,-43.66873,0.8906903,0.59522724,0.010375382,-0.34790006
-0.3000234,6.3385744,7.689577,6.7588,-28.243,-0.8296,189.5265,-44.001823,0.74258274,0.5261135,0.11129805,-0.426723
-0.7058406,6.161478,7.827169,7.4786,-27.803799,-1.5982,189.7697,-44.38092,0.3748827,0.48729324,0.18517476,-0.4383141
-0.975712,5.952584,7.81445,7.7836,-27.681799,-1.1956,189.95665,-43.958965,-0.61907476,0.48954153,0.30023658,-0.36568645
-1.0452935,5.931859,7.692046,7.8933997,-27.449999,-0.3172,189.99814,-43.289383,-1.8414063,0.51363975,0.36397108,-0.2552544
-0.883236,6.163049,7.7610292,7.5884,-27.4622,-0.21959999,189.95746,-43.550587,-2.332011,0.54813,0.30375057,-0.18006203
-0.8203882,6.198962,7.5991216,7.9056,-27.181599,-0.4148,189.89224,-43.995342,-2.6448267,0.6345804,0.36365467,-0.1578457
-0.92850137,6.2302365,7.103522,7.625,-26.7302,-0.0122,189.73354,-44.717365,-3.0812418,0.6926359,0.36930034,-0.15433173
-0.9712229,6.328848,6.793547,7.7103996,-26.8888,0.3782,189.64798,-45.11332,-3.2910874,0.6712523,0.34253752,-0.13687845
-0.93920046,6.4359884,6.356381,8.1374,-26.2666,1.5616,189.52734,-45.69044,-3.5764136,0.6101158,0.28653044,-0.09940716
-0.8382699,6.7215714,6.2133274,7.93,-26.2788,1.464,189.42601,-46.20986,-3.7999146,0.51247394,0.1471206,-0.07384341
-0.8097639,6.8373914,6.1583357,8.1374,-26.3764,1.2688,189.38889,-46.510742,-3.8957353,0.45833212,0.060703482,-0.07840659
-0.8147768,6.9793973,6.0934677,7.6493998,-26.0714,0.7808,189.43304,-47.007393,-3.9929433,0.342321,-0.09779173,-0.10741769
-0.8256255,6.986505,6.104092,8.3448,-26.0226,1.0735999,189.58372,-47.283363,-4.001208,0.2577192,-0.17195156,-0.12228962
-0.7787141,6.8339496,6.149133,7.7469997,-26.108,1.5616,189.78337,-47.46732,-3.971184,0.11559475,-0.2501583,-0.13947645
-0.4973206,6.8228016,6.806192,8.064199,-25.498,0.9882,190.13074,-47.542633,-3.8917682,-0.02158346,-0.21725018,-0.16280857
-0.32710782,6.5382657,6.890961,8.7596,-25.864,0.4026,190.46512,-47.48388,-3.903225,-0.08631719,0.030293453,-0.19654939
-0.46267948,6.5638537,6.7976623,8.5644,-25.5346,1.6714,190.52704,-47.390507,-4.073869,-0.15041807,0.2542052,-0.18750632
-0.3302502,6.979622,6.4908304,8.454599,-25.864,0.5002,190.48988,-47.253563,-4.3455324,-0.23210548,0.27745405,-0.18116118
-0.15405191,7.253907,6.5598884,8.881599,-25.3028,0.8052,190.51582,-47.121204,-4.5236855,-0.30248487,0.18392572,-0.2603505
-0.21345805,7.1509566,6.5870476,8.5766,-25.2418,0.4148,190.55682,-46.863,-4.7889247,-0.3403725,0.14660433,-0.36047378
-0.4397849,6.942362,6.6750345,9.0646,-25.656599,0.5978,190.67676,-46.661102,-4.9927254,-0.37203157,0.09690907,-0.40455666
-0.7046435,6.750302,6.8008795,8.4911995,-24.997799,0.21959999,190.8766,-46.32528,-5.295634,-0.40062633,0.06465046,-0.38140774
-0.91353756,6.556147,6.9630117,8.601,-24.9124,-0.060999997,191.05426,-45.96046,-5.5546007,-0.4361824,0.03530628,-0.266679
-0.9601497,6.609867,7.128436,9.0036,-24.6196,0.13419999,191.25703,-45.44045,-5.795522,-0.4617295,0.011874234,-0.20017993
-0.8985738,6.4992104,7.2917657,9.089,-25.071,-0.0732,191.39986,-45.16649,-5.8795004,-0.47367036,0.041851263,-0.15909475
-0.710629,6.3821187,7.4848733,8.8084,-24.7904,-1.1345999,191.50516,-44.601254,-6.040076,-0.46869084,0.13334781,-0.11238055
-0.5402666,6.3697734,7.540239,9.0157995,-24.5952,-1.037,191.49594,-44.320652,-6.1312056,-0.4607969,0.2305067,-0.09775842
-0.54894555,6.4341927,7.543606,9.601399,-24.765999,-1.3298,191.45563,-43.913456,-6.3179755,-0.46705875,0.30799732,-0.117526606
-0.8264485,6.4736967,7.6208935,9.0157995,-24.4854,-0.732,191.41289,-43.522663,-6.5838113,-0.45631698,0.36158958,-0.16337481
-1.1723359,6.3815203,7.6549363,9.3208,-24.3268,-1.22,191.35779,-43.14701,-6.8991647,-0.42054442,0.30373392,-0.19178636
-1.3756185,6.26817,7.5985227,8.8328,-24.1926,-1.6104,191.29625,-42.79099,-7.2036533,-0.3966294,0.23918338,-0.20177871
-1.6196027,6.195371,7.536648,8.9182,-24.6684,-2.3058,191.30003,-42.561405,-7.3856044,-0.38653713,0.18292649,-0.18750632
-1.7186627,6.141277,7.586028,8.845,-24.0096,-1.5982,191.32005,-42.222694,-7.6187735,-0.38282332,0.13867706,-0.16692209
-1.8139819,5.9774237,7.68232,9.1378,-24.1682,-1.4152,191.3464,-41.879177,-7.8033967,-0.3657697,0.11915869,-0.11331317
-1.9295769,5.895722,7.7101526,9.1622,-23.4728,-1.7811999,191.35547,-41.548252,-7.957881,-0.32003808,0.1292343,-0.030043645
-1.916334,5.922058,7.6696005,8.9426,-24.070599,-2.6718,191.31413,-41.260353,-8.075247,-0.27330723,0.121307045,0.053159263
-1.813907,5.994183,7.660772,9.0402,-23.9608,-2.379,191.21182,-41.04476,-8.119473,-0.20396037,0.1110982,0.14339012
-1.6777369,6.104466,7.553033,9.0402,-24.0462,-2.379,191.10785,-40.94332,-8.115663,-0.12846822,0.09717553,0.18539126
-1.6274586,6.118981,7.518841,9.2598,-23.680199,-2.4766,191.05089,-40.906536,-8.106328,-0.0955601,0.08280321,0.1931853
-1.5806221,6.2609124,7.1653967,8.7596,-23.6192,-2.4766,190.8433,-40.864433,-8.004573,0.039886102,0.07131202,0.19097033
-1.575684,6.316802,6.903681,8.9548,-23.753399,-3.355,190.73355,-40.899017,-7.963002,0.056639932,0.098890886,0.18289319
-1.5753099,6.3379755,6.630143,9.271999,-23.362999,-3.05,190.63875,-40.967663,-7.9243665,0.025880167,0.11819276,0.17285088
-1.5702223,6.2995934,6.4045644,8.9548,-23.607,-2.379,190.53345,-41.000195,-7.905969,-0.07480934,0.14252412,0.17071918
-1.5746366,6.366482,6.492776,8.4911995,-22.862799,-3.0377998,190.35918,-40.92138,-7.899285,-0.20404364,0.12985049,0.15964434
-1.4419827,6.4557405,6.7947445,8.588799,-22.8872,-3.4282,190.19133,-40.75023,-7.8954644,-0.30213514,0.10423679,0.11086504
-1.3988872,6.341567,7.0569844,8.4911995,-22.753,-2.745,190.18408,-40.58884,-7.902251,-0.34190467,0.13629556,0.043683194
-1.533112,6.228965,7.2244287,8.6986,-22.6554,-2.6474,190.15637,-40.31422,-7.97329,-0.3383574,0.23683518,-0.0088598775
-1.7481413,6.0978074,7.168988,8.881599,-23.3508,-4.026,190.025,-40.04841,-8.136068,-0.2891784,0.33154595,0.009859112
-1.7450738,6.1251163,7.0268326,8.906,-22.5578,-4.1967998,189.91214,-39.833694,-8.346204,-0.21953177,0.37343052,0.057772394
-1.5613188,6.2154226,6.9722147,8.723,-22.2528,-3.416,189.75714,-39.685238,-8.556459,-0.14192457,0.36770156,0.07017955
-1.4026281,6.246921,6.749105,9.1133995,-22.3748,-4.3919997,189.60075,-39.605125,-8.765363,-0.06166941,0.41644755,0.029527374
-1.5257798,6.270115,6.572308,8.3204,-22.2284,-4.1967998,189.35263,-39.585033,-9.016963,-0.041051876,0.42918777,0.013955972
-1.6014217,6.2466965,6.453571,8.2228,-22.1308,-4.0992,189.19121,-39.58981,-9.28833,-0.025830206,0.39696246,0.023432044
-1.5349826,6.306477,6.278495,8.6376,-21.777,-4.2822,189.04707,-39.60555,-9.5310135,-0.016220903,0.3083637,0.028528139
-1.3608792,6.4240174,6.007501,8.356999,-21.423199,-4.1724,188.88806,-39.62129,-9.695537,-0.02464778,0.11011562,-0.033540964
-1.4210335,6.486865,5.8443213,8.7718,-21.1548,-4.3676,188.95667,-39.615166,-9.750455,-0.079439126,-0.075642034,-0.130933
-1.5420903,6.4205756,5.782446,8.3692,-21.1426,-3.8795998,189.15536,-39.546436,-9.777367,-0.15020157,-0.18282656,-0.17586523
-1.5974562,6.254403,5.791948,8.8938,-20.557,-4.9288,189.37364,-39.38622,-9.750185,-0.2426807,-0.2570197,-0.18958806
-1.6981623,6.1732244,5.9474216,8.601,-20.3008,-5.0264,189.74841,-39.11872,-9.676212,-0.36217245,-0.28854555,-0.17774713
-1.2810476,6.0972085,6.889091,8.9304,-19.788399,-5.5998,190.30963,-38.45977,-9.492111,-0.46605954,-0.26556316,-0.1786964
-1.280449,6.0113916,7.060127,8.845,-19.5322,-5.6851997,190.59853,-38.1653,-9.429461,-0.4371983,-0.13354766,-0.19919735
-1.5657331,5.9756284,7.0874357,9.028,-19.861599,-5.3069997,190.91064,-37.762856,-9.44908,-0.3924326,0.032175343,-0.17861313
-1.9267339,6.062418,7.12679,8.9548,-19.1296,-6.466,191.00772,-37.41278,-9.56243,-0.3666357,0.113746166,-0.08836562
-2.0964978,6.307749,7.1902366,8.5766,-18.666,-5.8682,191.09555,-37.129395,-9.689991,-0.314509,0.15166712,0.08981451
-1.9031659,6.6943374,7.2973022,8.8694,-18.775799,-6.5513997,191.05846,-36.93371,-9.760186,-0.24318032,0.043083653,0.19137003
-1.657012,7.0346136,7.3966618,8.588799,-18.4464,-6.832,191.02928,-36.783348,-9.687614,-0.15321593,-0.10481968,0.19418453
-1.4612861,7.26109,7.424195,8.723,-17.6778,-7.4054,191.07831,-36.68396,-9.438216,-0.059571017,-0.2202812,0.14190793
-1.407192,7.3042603,7.32304,8.9304,-17.385,-7.0028,191.09486,-36.717598,-9.195923,-0.016487366,-0.2769711,0.085417874
-1.1241525,7.4116254,7.392397,8.8572,-16.8848,-7.5762,191.31215,-36.815193,-8.93088,-0.04150153,-0.36220577,0.02691271
-0.8141782,7.410877,7.642591,8.064199,-16.6286,-7.0882,191.65266,-36.792496,-8.648569,-0.07002967,-0.418879,-0.082386866
-0.7795371,7.258322,7.7591586,8.2838,-16.3968,-7.9544,192.09842,-36.707,-8.42,-0.090963624,-0.3443861,-0.23405398
-1.0853964,7.048006,7.7651443,8.9182,-15.4939995,-8.3326,192.44939,-36.577118,-8.317858,-0.15178369,-0.30253485,-0.33547625
-1.258153,6.9124346,7.8224554,8.8206,-15.4696,-9.1988,192.83685,-36.38833,-8.277835,-0.22074752,-0.30676493,-0.34078884
-1.2749124,6.8026004,7.9169517,8.5278,-15.189,-8.906,193.09924,-36.22251,-8.250267,-0.28193396,-0.33466023,-0.32633325
-1.0317513,6.751574,8.385168,8.8572,-14.603399,-9.6746,193.36543,-36.02086,-8.202366,-0.34368664,-0.41634762,-0.3003365
-0.8808418,6.707356,8.921768,8.967,-14.542399,-10.3456,193.7882,-35.67476,-8.052237,-0.34222108,-0.5068116,-0.27763724
-0.7588123,6.677279,9.293243,9.1133995,-13.2736,-10.028399,194.08752,-35.442326,-7.903196,-0.28451532,-0.5371384,-0.24855953
-0.5042039,6.5159698,9.336713,8.5278,-13.005199,-11.102,194.3834,-35.235806,-7.733057,-0.23029019,-0.5550913,-0.22484437
-0.12367548,6.1080575,9.279252,9.1378,-12.968599,-10.9922,194.82544,-34.979702,-7.438569,-0.21733345,-0.710722,-0.2676782
-0.14058453,5.779678,9.357588,8.9426,-12.9442,-11.8706,195.37994,-34.71482,-7.0522604,-0.2791028,-0.93736506,-0.4030578
-0.21308395,5.5551467,9.479318,9.2842,-11.9925995,-12.627,196.13345,-34.376644,-6.579816,-0.35747606,-1.0740769,-0.5373549
-0.2220622,5.23163,9.621025,8.601,-11.6144,-13.2126,196.73982,-34.09631,-6.2386365,-0.48349616,-1.1853583,-0.66111004
-0.02813187,4.800524,9.838972,8.9182,-11.3216,-14.5668,198.50598,-33.387634,-5.5303817,-0.5736937,-1.1519339,-0.7219634
-0.014739304,4.518981,10.010606,8.723,-11.0898,-15.1402,199.21103,-32.984592,-5.2018757,-0.60998255,-1.0812881,-0.7028947
0.05050269,4.3581953,10.186056,7.9666,-10.2724,-15.7136,200.62051,-32.366592,-4.744425,-0.6027881,-0.92957103,-0.61589473
0.10586861,4.3156233,10.345495,8.0764,-10.0162,-16.091799,201.21187,-31.965082,-4.4729795,-0.553276,-0.7637148,-0.51475555
0.41748893,4.127005,10.433931,9.1866,-9.7478,-16.958,202.58492,-31.254763,-4.033008,-0.43558288,-0.5606704,-0.41080186
0.76764095,3.834763,10.37228,8.3935995,-9.6624,-17.934,203.75507,-30.717497,-3.7166903,-0.30230168,-0.5460649,-0.43564948
0.8706664,3.5042882,10.162713,8.8206,-9.15,-18.7026,204.5844,-30.514498,-3.562653,-0.19888093,-0.59557694,-0.5050463
0.6715736,3.2834232,9.898677,8.4302,-8.845,-19.276,205.91464,-30.19787,-3.2291393,-0.038004212,-0.6010228,-0.62888473
0.31528643,3.2061353,9.464429,7.9544,-8.5156,-19.3736,207.12459,-29.665648,-2.8202553,0.10197186,-0.4958367,-0.6490693
0.15906477,3.2683098,9.006537,8.2838,-7.7469997,-20.2276,207.92953,-27.030252,-1.6679542,0.21660069,-0.39561352,-0.5903143
0.117689975,3.4002903,8.639177,8.174,-7.9788,-21.0206,209.00563,-26.940733,-1.4918956,0.28349942,-0.358875,-0.51642096
0.058957215,3.6086605,8.328679,7.9788,-8.0764,-20.923,209.8287,-27.08915,-1.4331303,0.32083747,-0.32576704,-0.4429439
0.024091655,4.0583215,8.045341,8.1862,-7.8324,-21.691599,210.90782,-27.441715,-1.3251206,0.33555952,-0.2994372,-0.371049
0.2515408,4.496086,7.795446,8.113,-7.1492,-21.9722,211.3078,-27.71779,-1.2295595,0.3200048,-0.37786046,-0.35765925
0.3636194,4.49878,7.4476132,7.6006,-7.442,-21.9844,212.20198,-27.987204,-1.0856066,0.30474982,-0.29036084,-0.4168972
0.15824176,4.3254995,6.9958572,7.6981997,-7.6006,-23.3508,213.2368,-28.3335,-1.0607932,0.29903752,0.0052959416,-0.48544466
-0.28498483,4.20145,6.5787425,7.4054,-7.4542,-23.8266,214.16988,-28.66929,-1.3600047,0.28066826,0.20742439,-0.46837443
-0.6088006,4.321609,6.3520417,7.8324,-7.0028,-23.911999,214.8974,-28.905502,-1.7066457,0.24096535,0.2569198,-0.4164975
-0.7625532,4.433014,6.242806,7.7103996,-7.3566,-23.8266,215.03273,-29.040966,-1.9491764,0.17263438,0.22257943,-0.35857522
-0.8872762,4.526762,6.2629323,7.442,-6.8808,-24.692799,215.74022,-29.237183,-2.3644736,0.09366156,0.19500057,-0.29304212
-0.94765496,4.620884,6.3206177,7.7348,-7.0882,-25.376,216.3418,-29.30907,-2.613512,0.011757657,0.14020923,-0.21458556
-0.9541642,4.7655087,6.4981627,7.7714,-6.2098,-25.656599,216.40755,-29.317226,-2.7425778,-0.037054937,0.066465735,-0.14768682
-0.5777508,5.1281557,6.9306903,8.1862,-5.9536,-26.0348,216.96826,-29.294468,-2.838726,-0.06013725,-0.12265601,-0.12298909
-0.12427403,5.1651163,7.3098717,7.381,-6.0878,-26.23,217.67203,-29.230022,-2.751802,-0.04503216,-0.22964069,-0.24805991
-0.30339023,5.0629883,7.4004774,7.1858,-5.9902,-27.5964,218.43463,-29.18844,-2.7120237,-0.020117916,-0.0944776,-0.3674018
-1.00751,5.083863,7.39135,7.6006,-5.7218,-27.7794,219.20831,-29.164917,-2.8067412,-0.0074442956,0.013922664,-0.35412863
-1.5118636,5.094936,7.498864,7.4175997,-5.3314,-28.7554,219.98396,-29.172543,-3.0379941,-0.019734878,0.029643951,-0.20782408
-1.4693664,5.18629,7.9074497,7.0516,-4.6726,-29.219,220.10107,-29.237528,-3.258116,-0.034523543,-0.12032446,-0.051876914
-1.3052888,5.1550903,8.229171,7.2102,-5.5875998,-29.828999,220.64032,-29.272717,-3.2852445,-0.037204824,-0.17584859,0.0034307044
-1.1665,5.118878,8.398934,7.137,-4.9776,-30.012,221.13655,-29.264658,-3.2174819,-0.022382848,-0.037837673,0.047147203
-1.105373,5.1095257,8.360104,7.0394,-5.0386,-31.0856,221.5288,-29.25816,-3.200241,-0.020001339,0.12407159,0.11486198
-0.75267714,5.4040875,8.834455,6.6612,-4.6359997,-31.5614,221.38785,-29.24676,-3.2367487,-0.041984495,0.018435873,0.14475574
-0.5291934,5.216666,9.105747,7.1492,-4.758,-32.5374,221.72144,-29.224041,-3.18853,-0.007710758,0.016154287,0.08222033
-0.5731869,4.671836,8.891841,7.2711997,-4.575,-34.0868,222.0998,-29.235977,-3.2020454,0.053558957,0.19146994,-0.020850688
-1.2873323,4.3315597,8.4464445,6.954,-4.9288,-33.8062,222.4676,-29.28931,-3.382736,0.0748593,0.37294754,-0.0058788285
-1.9699043,4.4119153,8.173506,7.0516,-4.8434,-33.9038,222.29886,-29.314327,-3.8647232,0.054641463,0.48960814,0.15016825
-2.4689457,4.571878,7.8996687,7.3566,-4.8556,-34.4894,222.50124,-29.316229,-4.610446,0.019801494,0.6714688,0.38179076
-2.5632174,4.642881,7.638177,7.4542,-5.0629997,-34.977398,222.13712,-29.375463,-5.2098937,-0.025380552,0.8354931,0.56713206
-2.3768437,4.902951,7.8100357,7.5518,-5.0141997,-35.9534,221.44374,-29.500122,-6.1704397,-0.2008794,0.89313227,0.8445695
-1.8787001,5.284452,8.627057,8.8572,-5.0264,-37.21,220.83046,-29.494644,-6.738842,-0.36477047,0.68654054,0.97618526
-1.4809633,5.4316206,9.646912,7.8445997,-5.4045997,-36.8318,220.56703,-29.360804,-6.7939005,-0.44852296,0.4320023,0.9732542
-1.315988,5.4016933,11.203517,8.5644,-5.0874,-37.9908,219.67686,-29.082773,-6.6958885,-0.44682425,0.06924693,0.84608495
-1.429937,5.19452,12.234969,8.3326,-5.6363997,-38.100597,219.43384,-28.783634,-6.39796,-0.2835827,-0.017919602,0.71878254
-1.5985786,4.788179,12.60824,8.7352,-5.6486,-38.5886,219.49603,-28.664356,-6.198228,-0.013756125,0.14500555,0.6348968
-1.7630303,4.520028,12.563199,8.9426,-5.673,-39.2718,219.1397,-28.667494,-6.0831895,0.21508518,0.31166118,0.61837614
-1.8819174,4.422614,12.367698,8.8328,-5.9414,-39.284,219.17053,-28.799505,-6.052938,0.4135664,0.41997817,0.65598065
-1.9012206,4.822072,11.917363,8.9914,-6.9417996,-39.6988,218.66824,-29.40037,-6.098396,0.6338809,0.45145404,0.81820637
-1.7644519,5.429002,11.742661,9.174399,-7.4175997,-40.382,218.13129,-29.81497,-6.0866075,0.69183654,0.35929134,0.9350002
-0.2503437,5.6487446,11.235615,8.9914,-9.2598,-41.5044,217.33714,-31.159657,-5.634576,0.7359194,-0.03265831,0.8955637
0.21944354,5.3717656,10.512192,8.552199,-10.2602,-41.516598,216.70616,-31.845295,-5.214197,0.78384936,-0.027195826,0.7174502
0.2605191,5.4418707,8.989703,9.6868,-11.9316,-42.334,216.72488,-33.028454,-4.7964315,0.7900779,0.4819973,0.4096028
0.17223288,5.734412,8.1652,9.4672,-12.4928,-42.443798,216.38405,-33.50572,-4.8626165,0.71979845,0.8281321,0.26704538
-0.020275896,6.016928,7.434071,10.3334,-13.3224,-42.273,216.22832,-34.237488,-5.1442366,0.6263534,1.2021954,0.12465448
-0.22827217,6.159907,6.7939215,10.309,-13.8714,-42.4804,215.96947,-34.952587,-5.827834,0.5296941,1.5100762,-0.002298239
-0.64830494,6.243554,6.32997,11.370399,-14.6278,-42.687798,215.46754,-35.33609,-6.5215836,0.4640444,1.73129,-0.08728311
-1.3061118,6.2320323,5.982212,11.651,-15.2134,-42.1144,215.08775,-35.84889,-7.7598305,0.4629952,1.8180401,-0.096176304
-1.8115877,6.008698,5.8562922,13.5054,-16.286999,-42.2364,214.66743,-36.388092,-9.039775,0.5558907,1.6404096,0.008626723
-2.1985505,5.7119665,5.7220674,14.151999,-17.324,-42.2608,213.96083,-37.2671,-10.448707,0.74672776,1.2987049,0.18424214
-2.4484453,5.6678987,5.6398416,14.1398,-17.751,-41.968,213.16612,-38.096645,-11.159069,0.92432505,0.91253406,0.33884034
-2.533664,5.8000283,5.626673,14.969399,-19.397999,-42.0046,212.89104,-39.060852,-11.518855,1.0781738,0.52364874,0.46822453
-2.4307132,5.82427,5.552378,15.030399,-20.288599,-41.9314,212.73427,-40.124805,-11.555597,1.2010629,0.18907177,0.5935618
-2.1659296,5.947197,5.4887824,14.6522,-22.0576,-41.5776,212.23795,-41.255875,-11.346017,1.2179334,-0.009625957,0.65498143
-1.8385973,6.114567,5.5069633,15.420799,-23.0092,-41.6996,212.25099,-42.374237,-10.969698,1.154432,-0.104336716,0.65899503
-1.5304934,6.244901,5.5799866,14.737599,-24.961199,-41.0652,212.3322,-43.423252,-10.524062,1.0584222,-0.12776875,0.61566156
-1.1733085,6.385186,5.8111014,15.0182,-25.2784,-40.589397,212.12714,-44.0611,-10.230309,0.9434104,-0.112813555,0.5365555
-1.0268881,6.4838724,5.992537,13.590799,-26.0592,-40.7968,212.31577,-44.905872,-9.845986,0.81279385,-0.034690082,0.39999348
-0.9154829,6.5429792,6.0782795,14.212999,-27.803799,-40.6382,212.53627,-45.627964,-9.5879,0.67391694,-0.0016653904,0.237518
-0.87552965,6.4692826,6.2388406,13.395599,-28.1576,-40.0648,212.84947,-46.215134,-9.444569,0.53205895,-0.02434801,0.07454288
-0.8194155,6.291962,6.557569,13.1516,-29.3288,-39.9916,212.82706,-46.665913,-9.384909,0.40926972,-0.072727606,-0.04926225
-0.6948422,6.0877814,7.2209873,13.920199,-30.0852,-39.9184,213.3617,-46.95479,-9.331736,0.37569544,-0.065649696,-0.12786868
-0.72918403,5.9758525,7.6651864,12.907599,-30.378,-39.6378,214.13652,-46.06427,-8.593274,0.4618794,-0.038403906,-0.18114452
-0.9434651,6.109928,7.6652613,14.0666,-31.3174,-39.7476,215.07903,-44.41665,-7.6687574,0.60337096,-0.051510528,-0.24724387
-1.52159,6.6300683,7.190087,13.724999,-32.269,-39.0888,215.86243,-45.026672,-7.792341,0.7261269,-0.098657735,-0.32040447
-1.8751837,7.167641,6.6538606,13.5664,-33.5988,-38.8326,216.10483,-45.61035,-7.935922,0.73178923,0.047563553,-0.28524807
-1.6840216,7.500884,5.971588,13.7616,-33.855,-38.8326,216.74597,-46.223995,-8.139604,0.5980417,0.17183499,-0.25378886
-2.212392,8.085593,5.4956656,13.6152,-34.7212,-38.369,217.20203,-47.348522,-8.724663,0.34954882,0.16104326,-0.2375846
-2.233042,8.661922,5.320814,13.493199,-35.1848,-37.0148,217.67528,-47.93392,-9.110248,-0.024747703,0.1902209,-0.17583193
-2.0247464,8.738986,5.5151935,14.2008,-35.1116,-37.881,217.63844,-47.905243,-9.339318,-0.41325,0.18304306,-0.13737807
-1.9045875,8.463279,6.1798835,13.359,-36.0022,-37.2222,218.11937,-47.68178,-9.463172,-0.6787632,0.16740505,-0.10760088
-1.6839468,7.8778963,7.229741,14.1642,-35.989998,-37.6126,218.58017,-47.104256,-9.615749,-0.867835,0.10591883,-0.037854325
-1.3052888,7.386337,8.323891,13.883599,-35.5508,-37.5028,218.53465,-46.374115,-9.695175,-0.8569267,0.030759763,0.04055226
-0.90313774,6.881235,8.893935,13.981199,-35.563,-37.7956,218.99358,-45.660458,-9.669454,-0.6673386,-0.16722186,0.1002232
-0.6745663,6.5718594,9.018733,12.285399,-35.6606,-38.100597,219.53082,-45.09138,-9.482272,-0.40439013,-0.48226377,0.14197454
-0.5009119,6.4711533,8.812608,12.566,-35.916798,-38.1982,220.32535,-44.63273,-8.911581,-0.13749464,-0.7685777,0.17649809
-0.38658875,6.2694416,8.417714,11.651,-36.3194,-38.308,220.56683,-44.516056,-8.520083,0.01603771,-0.86327183,0.18484169
-0.27615622,6.070199,8.054993,11.6388,-36.6488,-37.8322,221.44257,-44.32152,-7.774384,0.082003824,-0.86253905,0.18482503
-0.029927522,5.8989387,7.7257895,10.8214,-37.027,-37.637,222.3829,-43.099514,-6.008982,0.10989912,-0.77177525,0.16986983
0.18240824,5.7775826,7.240814,9.9307995,-36.9782,-37.6492,223.03796,-42.7605,-5.0028844,0.10013993,-0.62000823,0.12308901
0.20081367,5.8485856,6.696283,10.004,-37.5394,-36.4902,223.31769,-42.814083,-4.542124,0.05485796,-0.47320405,0.08763285
0.19407998,6.026056,6.294431,8.3935995,-37.8688,-36.307198,223.74727,-42.843357,-4.1914654,-0.014788668,-0.3714487,0.068347625
0.023343466,6.033463,6.1088805,7.7957997,-37.941998,-37.087997,224.0685,-42.821133,-3.9178803,-0.05723947,-0.23800096,0.064117536
-1.6258126,5.71683,5.734637,8.8694,-38.4422,-35.929,224.26373,-42.77106,-3.7365432,-0.05762251,-0.09884092,0.16795462
-0.5722142,5.9601407,5.7809496,7.869,-38.332397,-36.3194,224.29507,-42.742718,-3.454999,0.081071205,-0.2559039,0.42071095
-0.1850269,6.0011415,5.662661,8.2838,-38.100597,-35.7216,224.17226,-42.83097,-3.061694,0.20121248,-0.2136696,0.453669
0.3426701,6.2264957,5.459154,7.5518,-38.8326,-35.453197,224.0341,-43.042046,-2.653718,0.3390069,-0.30213514,0.38483843
0.36593875,6.6237836,5.068974,7.2346,-39.2718,-35.075,223.99797,-43.356976,-2.2551746,0.40021,-0.28872874,0.21035548
0.21300913,6.8340993,4.740968,7.015,-39.6622,-33.818398,224.02449,-43.58732,-2.0585427,0.35219678,-0.1869734,0.06453388
-0.20006548,6.8872204,4.7297454,6.3073997,-39.881798,-34.0136,224.09569,-43.887554,-1.9150994,0.23445368,-0.035406202,-0.0968258
-0.86722475,7.002741,4.8557405,6.2952,-40.0526,-33.916,224.17369,-44.089268,-1.9599156,0.11830934,0.13203216,-0.17479938
-1.3192799,7.2101383,5.0753336,6.1976,-39.8208,-32.8424,224.19257,-44.19769,-2.1539328,0.046614278,0.2680779,-0.15826206
-1.6914287,7.481132,5.4317703,6.1854,-40.113598,-33.342598,224.10617,-44.353863,-2.5109246,0.013456355,0.32205322,-0.093095325
-1.678934,7.8088384,5.883676,6.588,-39.954998,-32.3544,223.84872,-45.79028,-3.9504936,0.04669755,0.2402992,-0.019568339
-1.3828012,8.025439,6.290765,5.9779997,-40.2478,-32.4642,223.52684,-46.299805,-4.4579577,0.09762519,0.16089338,-0.002997703
-1.276708,8.122928,6.6295447,6.2708,-40.4674,-31.781,223.25197,-46.39601,-4.5556016,0.12597014,0.10498621,-0.034223773
-1.3466636,8.271817,6.83163,5.3924,-39.9306,-31.0002,223.20952,-46.507145,-4.641369,0.12275593,0.101239085,-0.07732408
-1.4657004,8.467244,6.8323784,5.7462,-40.8334,-29.951,222.97012,-46.607117,-4.7696047,0.046680894,0.1777971,-0.15719621
-1.7316812,8.563985,6.9371247,6.4416,-41.0164,-30.7318,222.9566,-46.631958,-4.910426,-0.07867305,0.28794602,-0.22364528
-2.0186112,8.538097,7.236699,6.6612,-40.4674,-30.524399,222.65918,-46.567177,-5.23055,-0.21721688,0.52862823,-0.24176474
-2.25863,8.343793,7.405715,6.5758,-40.272198,-30.219398,222.205,-46.403057,-5.7029963,-0.2834328,0.85564435,-0.17375019
-2.4185178,8.228422,7.2827125,6.2708,-40.198997,-30.219398,221.45465,-46.21313,-6.3263087,-0.2812678,1.1457553,-0.06013725
-2.39278,8.047136,6.1331964,6.7953997,-39.6256,-29.8168,220.71051,-46.07272,-7.0637093,-0.27282426,1.3949478,0.15974425
-2.282647,7.945308,5.3581486,6.4049997,-39.4304,-29.2312,219.30266,-46.924973,-8.3928585,-0.42932102,1.134897,0.30654842
-2.1156514,7.9677534,5.5555205,7.198,-39.3938,-29.2312,218.88799,-47.573338,-8.938293,-0.58856565,0.7703097,0.4196784
-1.8840122,8.116643,6.607174,6.0146,-39.0522,-28.535799,217.65059,-47.654476,-9.347333,-0.686374,0.28496498,0.5101091
-1.7711855,8.216676,8.20478,6.6368,-38.491,-28.425999,216.76506,-47.159683,-9.164832,-0.59034765,-0.17877966,0.53354114
-1.8186207,7.7820535,9.467945,5.9536,-38.308,-29.401999,216.15462,-46.7109,-8.720315,-0.29432446,-0.26371458,0.5322255
-1.9458874,7.1092076,9.490017,4.9653997,-37.7468,-28.2186,215.98312,-46.498512,-8.252674,-0.0053125955,-0.02742898,0.56851435
-2.078616,6.4053874,8.281993,5.185,-37.5028,-28.8042,215.18973,-46.588432,-7.9084444,0.17385012,0.2835827,0.68365943
-2.0478654,6.3052797,7.211186,3.6843998,-37.4906,-28.8042,214.17758,-46.519176,-7.854,0.13639548,0.43548295,0.8166742
-1.9449148,6.56535,6.5725327,4.1967998,-37.1734,-28.4016,212.96886,-46.701496,-7.601965,0.022366194,0.37284762,0.8689841
-1.7093852,7.0126915,6.370522,3.599,-37.2832,-28.2186,212.26138,-46.789246,-7.2540193,-0.08811581,0.11887557,0.828615
-1.3059622,7.132701,6.4719014,2.3179998,-36.5756,-27.328,211.44714,-46.788647,-6.944003,-0.15491462,-0.14495559,0.72104746
-0.72282445,6.590265,7.1441483,2.4278,-36.4414,-28.0966,210.66899,-46.69813,-6.4005184,-0.22264606,-0.44649118,0.50759435
-0.4122516,6.1076083,7.839813,1.4518,-35.929,-27.5964,210.63486,-46.365013,-5.7676225,-0.25007504,-0.47063935,0.37964243
-0.2698714,5.7468324,8.244658,1.7567999,-35.831398,-27.7916,210.33847,-45.124737,-4.9038086,-0.23805092,-0.2619326,0.27074254
-0.29979894,5.466112,8.277354,0.7808,-35.2458,-27.681799,209.9842,-43.920124,-4.334606,-0.19390142,0.028245023,0.20276129
-0.5663035,5.378574,7.802105,0.6832,-35.1238,-28.462599,209.98665,-42.607468,-4.04983,-0.14219104,0.4304868,0.1780136
-0.8663269,5.445612,7.033641,0.305,-34.586998,-28.1576,209.09573,-42.32636,-4.281446,-0.09752527,0.7594181,0.2143191
-0.89460844,5.523573,6.330868,0.23179999,-33.964798,-28.1454,208.29173,-42.300087,-4.530049,-0.046630934,0.8556943,0.26459724
-0.7863456,5.644181,5.9004354,0.6466,-33.7452,-27.7428,207.20462,-42.309,-4.9259043,0.018452527,0.7995373,0.26886064
-0.92012167,5.7827454,5.41748,1.1834,-32.7814,-28.3162,205.94327,-42.4289,-5.376418,0.11807618,0.62267286,0.25910145
-1.0791864,5.779528,5.2786164,0.3782,-32.8668,-27.633,205.44449,-42.59374,-5.593256,0.19793166,0.42800537,0.26306507
-1.2330139,5.7384524,5.302259,0.57339996,-33.037598,-27.7306,204.5784,-42.808956,-5.718133,0.24804325,0.35984093,0.29274234
-1.2190228,5.844546,5.0847607,0.8174,-31.963999,-27.608599,203.57976,-43.17247,-5.7826552,0.3061987,0.341888,0.3542785
-1.0327988,6.1125464,4.871976,0.0366,-31.6224,-27.3158,202.66736,-43.480457,-5.8013096,0.2836826,0.3360425,0.35734284
-0.99972886,6.4506526,4.8749685,-0.1952,-32.1592,-27.1328,201.76108,-43.767025,-5.8116674,0.23240525,0.30964604,0.31998813
-1.0232967,6.707356,5.031789,0.1464,-31.036798,-26.522799,201.39233,-43.99599,-5.817284,0.16289185,0.2689106,0.25721955
-1.0242695,6.912958,5.241431,0.060999997,-30.9636,-26.6204,200.6966,-44.11361,-5.837332,0.111747704,0.23175573,0.19481738
-1.1055975,7.1204305,5.4958153,0.56119996,-30.6586,-26.413,200.51865,-44.20619,-5.854556,0.08005532,0.22144698,0.14970195
-1.3016975,7.3813987,5.7632174,0.366,-30.5732,-26.3154,199.79454,-44.355743,-5.924647,0.049228944,0.23223871,0.10638514
-1.3917794,7.5531077,5.9243026,0.57339996,-30.4024,-26.595999,199.0578,-44.680283,-6.0835276,0.0062785223,0.18803924,0.08385241
-1.3272108,7.730279,6.165743,-0.0732,-29.279999,-26.669199,198.30226,-45.162205,-6.2820992,-0.041251723,0.10909973,0.0686807
-1.1205612,7.7888618,6.485219,0.5002,-29.768,-26.291,198.19464,-45.165234,-6.3108478,-0.075891845,0.038070828,0.038187403
-0.8784476,7.8175173,6.690447,-0.0732,-29.1824,-26.5716,197.63802,-45.127857,-6.315224,-0.110098965,-0.024214778,-0.016354134
-0.8464999,7.8558993,6.891485,0.2562,-28.535799,-26.2666,197.13512,-45.029152,-6.315598,-0.1863572,-0.09815811,-0.100672856
-1.1266215,7.850288,7.2304144,-0.13419999,-28.425999,-27.2426,197.25778,-44.851078,-6.3179126,-0.27921936,-0.120807424,-0.1541985
-1.4846295,7.9111905,7.5780225,-0.5002,-27.5964,-26.242199,196.93202,-44.496464,-6.35375,-0.35436177,-0.048945826,-0.11083174
-1.545083,8.011448,7.827992,-0.109799996,-27.7062,-27.022999,196.43211,-44.396313,-6.370591,-0.3660695,0.03407389,-0.012990045
-1.0766426,8.40275,7.831359,-0.7564,-26.400799,-26.901,195.86348,-43.99877,-6.4140463,-0.2931254,0.24899253,0.20564242
-0.21360768,8.214656,6.9644337,-0.1464,-26.3886,-27.291399,195.59993,-43.777687,-6.4318314,-0.32248622,0.13507982,0.24492897
0.23283611,8.375442,7.023166,-0.53679997,-26.0348,-28.548,194.91483,-43.49279,-6.322308,-0.5190023,-0.20602545,0.14662097
0.24757542,8.330774,7.7746463,-1.1101999,-25.437,-28.6334,194.94221,-43.192417,-6.175628,-0.6403926,-0.3573595,0.014655436
-0.18450317,7.9206176,8.878822,-1.3908,-25.0954,-28.535799,194.65054,-42.629414,-5.9456577,-0.65951127,-0.43331796,-0.12608671
-0.5470003,7.0305734,9.882217,-2.0374,-23.851,-29.670399,194.49881,-42.04288,-5.744782,-0.55860525,-0.4195785,-0.12075746
-0.5576994,6.467412,10.293272,-1.525,-23.668,-29.9632,194.3622,-41.540833,-5.5411334,-0.390634,-0.40415695,0.030593224
-0.35957918,6.0577793,10.406024,-1.5982,-22.9848,-30.4268,194.18571,-41.119953,-5.132158,-0.13363093,-0.40868682,0.27948582
0.14724341,5.966126,9.751733,-2.8669999,-22.3382,-30.5122,194.20436,-41.044914,-4.6888995,0.16520673,-0.37073258,0.46497703
1.0141689,5.8894367,8.141782,-2.6596,-22.0942,-31.0002,193.72353,-41.18552,-4.180016,0.3120442,-0.40895328,0.43809763
1.3673885,5.99134,7.0759134,-2.9401999,-21.777,-31.476,193.37007,-41.039665,-1.9935004,0.2136696,-0.49245596,0.2658796
1.3741221,5.9194393,6.8026752,-4.5383997,-21.9478,-31.5858,193.22781,-41.176792,-1.4368882,-0.019385146,-0.5816376,-0.011907542
0.98551327,5.7747397,7.042993,-3.3184,-21.3256,-32.7326,193.32541,-41.136684,-1.0285112,-0.20097932,-0.5424843,-0.24507886
0.46544778,5.4777837,7.2132807,-3.9039998,-20.984,-32.3422,193.78265,-40.953335,-0.8230306,-0.31953847,-0.37839338,-0.36390448
0.15165772,5.347524,7.3038116,-4.2943997,-20.8254,-32.5252,193.96962,-40.667336,-0.79054517,-0.390201,-0.17867975,-0.35576072
0.088585466,5.428553,7.4105034,-3.5867999,-20.5814,-33.4036,194.05214,-40.328415,-0.87586325,-0.39291558,-0.056756508,-0.29818818
0.120159,5.6843586,7.5260234,-4.453,-19.9226,-33.5866,194.19815,-40.105038,-0.96214694,-0.29638955,0.058754977,-0.23283824
0.11454759,5.906346,7.3174286,-4.2455997,-19.6908,-34.4528,194.10397,-39.83854,-1.1265656,-0.079422474,0.16434073,-0.2046765
0.020874446,5.9696426,6.580688,-3.9162,-18.9588,-34.2454,193.96352,-39.763924,-1.4210175,0.16848755,0.18689013,-0.2202479
-0.1126023,5.965827,5.7517705,-3.5135999,-18.9344,-34.1478,193.81888,-39.8647,-1.5820506,0.30779746,0.118342645,-0.24176474
-0.2777274,5.909488,5.076755,-3.3184,-19.1296,-34.6358,193.9196,-40.132854,-1.7852994,0.35599387,-0.0027145864,-0.26061696
-0.46866497,5.891532,4.697573,-3.8186,-19.0808,-34.9286,193.93843,-40.433865,-1.9060705,0.30474982,-0.18392572,-0.2644973
-0.6330419,5.9853544,4.965724,-3.599,-18.7148,-35.014,194.07613,-40.687946,-1.933155,0.228808,-0.26966003,-0.27543893
-0.89303726,6.0909986,5.4503255,-3.7942,-18.666,-35.599598,194.27267,-40.86751,-1.9183304,0.17411658,-0.24727719,-0.2945243
-1.2146833,6.1257896,5.726631,-3.9772,-18.2634,-36.075397,194.56792,-41.05912,-1.9494148,0.17243452,-0.14105858,-0.26886064
-1.4493898,6.2083893,5.805415,-3.9162,-19.1418,-36.0998,194.78935,-41.20519,-2.0287342,0.1761317,0.0081104515,-0.17907944
-1.4493898,6.2083893,5.805415,-3.9162,-19.1418,-36.0998,194.78935,-41.20519,-2.0287342,0.1761317,0.0081104515,-0.17907944
-1.5577275,6.719402,5.355455,-3.3794,-18.5684,-37.3442,194.42409,-41.60265,-2.3316054,0.2160511,0.301469,0.12124043
-1.5833904,6.7989345,4.999018,-3.0865998,-18.605,-38.125,194.26566,-41.737923,-2.4203396,0.20824042,0.31465888,0.17061925
-1.6749686,6.856545,4.510751,-3.4526,-17.7876,-37.624798,193.89655,-41.93712,-2.5293524,0.14633787,0.28944486,0.23465352
-1.785027,6.9380226,4.0926633,-2.9524,-17.9706,-38.1128,193.50615,-42.084133,-2.5851016,-0.0014988515,0.20071286,0.27980226
-1.8687493,7.0140386,4.0666265,-2.1471999,-17.7876,-38.7838,193.21527,-42.101784,-2.559947,-0.19072051,0.12029115,0.31405935
-1.5292963,7.030349,4.5629745,-3.2452,-17.6778,-39.0766,192.88968,-41.919693,-2.4521976,-0.4386139,0.037204824,0.35329592
-0.9879823,7.11048,5.6007113,-2.8304,-17.324,-39.3694,192.59798,-41.536427,-2.2697577,-0.64445615,-0.07947244,0.34127182
-0.8772505,7.3389015,6.6593223,-3.0133998,-16.9214,-39.9428,192.47035,-41.76935,-2.3589745,-0.74161506,-0.1394598,0.30878004
-0.96591073,7.5464487,7.9574285,-2.4034,-16.9214,-40.430798,192.29395,-41.17486,-2.1130698,-0.7569699,-0.14255743,0.28309974
-1.2041339,7.5900683,8.436344,-3.3672,-16.0064,-40.6992,192.05211,-40.350674,-1.835076,-0.6696868,0.13249847,0.31422588
-0.90613055,7.116166,8.453552,-3.4526,-15.677,-41.2726,191.7299,-39.765083,-1.744288,-0.8770113,0.038487174,0.38330626
-0.31640872,7.0866127,10.001328,-3.477,-14.1642,-42.7,191.4049,-39.010715,-1.5588758,-1.0718787,-0.029294219,0.46261218
-0.007556699,7.286678,11.662605,-3.1476,-13.493199,-43.6638,191.11203,-38.103806,-1.2938248,-1.0313929,-0.032691617,0.46564317
-0.15554829,7.3278284,12.824391,-3.0377998,-13.1394,-43.846798,190.7813,-37.244907,-1.035469,-0.7307733,0.05877163,0.4126338
-0.17253216,6.5992427,12.619538,-3.416,-12.7368,-44.225,190.44292,-36.643734,-0.87032074,-0.30170214,0.120374426,0.34125516
-0.15113398,5.9882727,11.696947,-2.4278,-12.8954,-44.712997,190.13768,-36.393173,-0.7761985,-0.047030628,0.0829531,0.30997914
0.025887307,5.5546227,10.587684,-2.623,-12.809999,-44.6154,189.88846,-36.37054,-0.6646164,0.053275842,0.0044299387,0.31968835
0.14694414,5.546318,10.114679,-2.4278,-13.0174,-45.2132,189.71942,-36.393238,-0.55442125,0.032991387,-0.07900613,0.31345978
0.3226187,5.765163,9.710882,-3.3184,-12.9808,-45.6036,189.6079,-36.402958,-0.40772048,-0.05485796,-0.21701704,0.25577068
0.52036476,6.029947,9.776573,-2.5132,-12.8222,-46.4698,189.541,-36.339123,-0.12453642,-0.2164508,-0.38438877,0.09562672
0.66738373,5.9807906,10.162638,-3.416,-12.9808,-46.957798,189.60709,-36.22267,0.08480259,-0.30378386,-0.4126338,-0.051627103
0.6545149,5.4536176,10.707394,-2.9157999,-12.9198,-46.3722,189.95877,-35.857136,0.36618406,-0.3286315,-0.18993779,-0.29197627
0.38389528,5.059472,10.569727,-3.5014,-12.4074,-46.262398,190.15147,-35.666412,0.34558555,-0.2604171,0.11148124,-0.3887521
-0.0014215573,4.8507276,10.100912,-2.5986,-12.4562,-47.9216,190.31476,-35.503773,0.18737504,-0.1720848,0.3986945,-0.40552258
-0.4269909,4.7143326,9.330428,-3.0988,-12.566,-47.7264,190.38487,-35.38807,-0.110149026,-0.072128065,0.6679382,-0.37243128
-0.98207164,4.6749783,8.194305,-2.5742,-12.1024,-47.8118,190.30101,-34.851868,-1.0458373,0.053075995,0.8961466,-0.26771152
-1.376217,4.6637554,7.078682,-1.9031999,-12.809999,-48.519398,190.12808,-34.88535,-1.5556499,0.16910376,0.95699996,-0.11016558
-1.6552163,4.6293387,6.0716953,-0.7198,-13.1272,-48.617,189.72017,-35.048737,-2.2731173,0.29732215,0.81422603,0.11436237
-1.7234511,4.6677957,5.479729,-1.2566,-13.8958,-49.3124,189.21999,-35.334908,-2.7776022,0.40688822,0.6065352,0.3221365
-1.6980876,4.7963343,5.1274076,-0.0366,-13.603,-49.8004,188.86963,-35.592735,-2.948602,0.51811963,0.3760285,0.5307766
-1.4909143,4.990414,4.864868,-0.46359998,-14.212999,-49.226997,188.31439,-36.08161,-2.93999,0.6286183,0.1381941,0.705093
-1.0736499,5.2034235,4.7738886,0.121999994,-14.3838,-49.715,187.94975,-36.46878,-2.7633376,0.71523523,-0.09031413,0.8174236
-0.60423666,5.419126,4.750246,-0.0854,-14.8596,-49.922398,187.60435,-36.893192,-2.4682202,0.75838554,-0.26746172,0.85083133
0.07496844,5.706355,4.9039984,0.0854,-15.3842,-49.9346,187.19455,-37.572704,-1.8412791,0.77918625,-0.46992323,0.80235183
0.92131877,6.0160303,5.232453,-0.3538,-16.4578,-49.8614,186.93646,-38.48191,-0.8459316,0.7500253,-0.6125639,0.5288448
1.1823616,6.0782795,5.4353614,-1.0004,-17.5558,-49.7882,186.99164,-39.1192,-0.18123724,0.6647073,-0.58220387,0.23407063
1.0057143,5.9892454,5.51033,-0.6954,-17.604599,-50.9594,187.10281,-39.501087,0.15704118,0.5469309,-0.45023832,-0.0069446783
0.6517466,5.846865,5.5348706,-1.1223999,-18.1048,-49.995598,187.40213,-39.96716,0.44123882,0.37789375,-0.2799022,-0.19241922
0.35875615,5.694235,5.7475057,-0.46359998,-19.1174,-51.2888,187.5866,-40.180244,0.4875693,0.1732006,-0.10388706,-0.2972056
0.23672669,5.5629277,6.2865005,-1.5616,-19.1418,-50.8008,187.88934,-40.322178,0.38242146,-0.05424177,0.13892688,-0.34530208
0.35194764,5.5913587,6.7521725,-0.671,-19.337,-51.874397,188.08205,-40.27097,0.09433882,-0.20587558,0.3810247,-0.3597743
0.471957,5.741146,6.913033,-0.47579998,-19.4956,-51.6792,188.15332,-40.09297,-0.35663015,-0.27360702,0.51788646,-0.38472185
0.48205754,5.8782887,6.7240405,0.5124,-19.764,-52.569798,188.13016,-39.85959,-0.90057266,-0.30831373,0.4637613,-0.43025362
0.24061728,6.1708302,6.5729065,1.8177999,-19.593199,-53.6312,188.24492,-39.5835,-1.4154499,-0.37386352,0.24800995,-0.48929173
-0.011971008,6.4026937,6.7179804,0.61,-19.9592,-52.8626,188.52748,-39.2433,-1.802244,-0.4536024,-0.052776225,-0.51951855
-0.2593968,6.729278,7.144747,1.22,-19.824999,-54.2168,188.93681,-38.844234,-1.9998136,-0.51825285,-0.33789107,-0.5144225
-0.16684593,6.855647,7.730503,1.3176,-19.7396,-54.3144,189.35757,-38.54021,-2.024473,-0.5644508,-0.53552294,-0.4804152
0.23291093,6.762797,8.411579,1.8299999,-19.666399,-55.0952,190.04953,-38.037693,-1.9138055,-0.60010684,-0.66349155,-0.44604152
0.638354,6.616077,9.168221,2.0252,-19.7518,-55.0952,190.48099,-37.682396,-1.7676865,-0.5931288,-0.60848373,-0.41446573
1.1691186,6.264803,9.079785,1.8177999,-19.8128,-55.9736,191.37587,-36.983864,-1.506188,-0.5996572,-0.444576,-0.42519084
1.279626,6.1132197,8.685864,1.0248,-19.7518,-55.7784,191.82872,-36.626392,-1.4444613,-0.72769237,-0.33785775,-0.5195019
0.9421932,6.091448,8.6457615,0.8296,-19.6542,-57.0472,192.36041,-35.974052,-1.4564989,-0.96640944,-0.1913034,-0.68144447
0.17342998,5.8091564,9.27005,1.2566,-19.2272,-57.8158,193.23097,-34.80593,-1.7818139,-1.1740004,-0.0058288667,-0.869567
-0.25453356,5.460276,9.650353,1.9642,-18.8612,-58.194,193.95169,-33.77926,-2.1939547,-1.1838428,0.04746363,-0.89418143
-0.31655836,5.147459,9.869123,2.1838,-18.617199,-58.864998,194.47449,-33.08625,-2.494261,-1.1513677,0.037854325,-0.8561606
-0.27982232,4.9283147,10.27135,2.8181999,-17.9096,-59.4384,195.0716,-32.07292,-2.9043448,-1.0616198,-0.024714395,-0.7608836
0.14036007,4.724882,10.408418,2.7206,-17.6656,-59.718998,195.76024,-31.139658,-3.2180898,-0.8832898,-0.08701665,-0.6785967
0.3060837,4.6538043,10.294319,3.5502,-17.0678,-60.7804,196.42697,-30.357334,-3.4313905,-0.7174502,-0.23063993,-0.6687042
0.43671736,4.608838,10.040085,2.8304,-17.4216,-60.109398,197.18158,-29.730436,-3.496529,-0.56548333,-0.47378695,-0.69122034
0.5243302,4.3905916,9.918429,2.4522,-17.2264,-61.1708,197.66122,-29.37894,-3.4439669,-0.46983996,-0.6276357,-0.7276091
0.49956515,4.0044518,9.564536,2.5498,-17.3972,-62.6348,198.90286,-28.754507,-3.1517072,-0.3874531,-0.7150021,-0.78416574
0.31453824,3.8732197,9.278878,2.1715999,-16.713999,-61.353798,199.64641,-28.355362,-2.8624883,-0.3731474,-0.65301627,-0.799504
0.26313773,3.8010197,8.941745,2.0374,-17.4582,-61.854,200.51672,-27.734646,-2.4636307,-0.38119122,-0.49007446,-0.7749728
0.32650927,3.8091002,8.511237,2.745,-17.3484,-62.0492,201.46721,-27.33682,-2.3632686,-0.38230705,-0.29007772,-0.7357695
0.38748658,3.8744917,8.045864,1.7445999,-17.4826,-63.5132,202.32285,-26.982714,-2.4302382,-0.37199828,-0.17071918,-0.71563494
0.3645172,4.010063,7.6093717,2.4278,-17.9096,-63.9158,203.10843,-26.646284,-2.575737,-0.33381087,-0.15579727,-0.70046324
0.3048118,4.1695023,7.296629,2.4156,-18.0926,-63.9158,203.71355,-26.353054,-2.6899774,-0.2445626,-0.3083637,-0.69246936
0.21592706,4.283526,7.108011,2.8181999,-18.2146,-64.7942,204.5829,-26.147501,-2.6683807,-0.11248048,-0.5212339,-0.6946344
0.12704232,4.310461,6.9888244,2.0008,-18.775799,-64.6112,205.5234,-26.053596,-2.4928513,0.013356431,-0.6665559,-0.69611657
0.060902506,4.3375454,6.854375,1.9764,-19.3004,-64.525795,206.04608,-26.048677,-2.320687,0.081304364,-0.70361084,-0.6945344
-0.085817166,4.4621935,6.7476087,2.1594,-19.764,-65.026,207.05959,-26.098715,-2.038938,0.10303771,-0.66598964,-0.69663286
-0.21091421,4.611906,6.596699,1.4274,-20.3008,-64.4526,208.07018,-26.172407,-1.7928983,0.08361926,-0.60150576,-0.71378636
-0.36676177,4.833295,6.5588408,1.8055999,-21.1426,-65.5506,208.58508,-26.211948,-1.6668593,0.03655532,-0.5581556,-0.7445628
-0.6499509,5.079299,6.625953,1.2932,-21.3622,-65.8434,209.61404,-26.237806,-1.524713,-0.010475306,-0.5145723,-0.7801189
-0.98940384,5.2272906,6.803947,1.0613999,-22.1918,-66.2582,210.65936,-26.224894,-1.4284545,-0.048512824,-0.536339,-0.80813074
-1.5457565,5.445537,7.493028,1.464,-22.1552,-65.8678,212.02477,-26.226727,-1.3341141,-0.06608269,-0.61274713,-0.79117703
-1.7488896,5.539584,8.061726,0.0122,-23.424,-66.673,212.99141,-28.166391,-3.3047264,-0.019601647,-0.6466378,-0.7288582
-2.0385132,5.692813,8.482582,1.1834,-24.217,-67.5636,213.50421,-28.60954,-3.793577,0.028211715,-0.6461382,-0.68229383
-2.5343373,5.7896285,9.49286,1.0613999,-24.7538,-67.5758,214.66232,-28.618082,-3.5831883,0.11641079,-0.6253708,-0.5820873
-2.6063879,5.620164,9.886781,0.109799996,-26.0714,-68.0028,215.47162,-28.70402,-3.373749,0.28609744,-0.4448258,-0.40986925
-2.7428572,5.661763,9.308731,0.87839997,-26.8888,-68.991,216.10925,-28.92124,-3.229236,0.34498563,-0.2689106,-0.2590848
-2.773608,5.909264,8.686687,0.54899997,-27.5842,-68.6128,216.40791,-29.191605,-3.1492853,0.24319698,-0.20967266,-0.1509843
-2.645518,6.2142253,8.590321,0.6954,-28.8408,-68.9422,216.75914,-29.346651,-3.0609396,-0.06030379,-0.27195826,-0.07049598
-2.415974,6.34022,9.424625,0.7564,-29.706999,-68.4664,217.07869,-29.277891,-2.8995821,-0.25823545,-0.34010604,-0.066549
-2.1973534,6.386907,10.923097,0.91499996,-30.866,-68.7836,217.26463,-29.027828,-2.6918902,-0.34948218,-0.20604211,-0.052642994
-2.2527194,6.31351,11.486258,1.5128,-30.8294,-68.5884,217.3713,-28.735014,-2.592188,-0.26762825,0.14720386,0.004746363
-2.5801265,6.0258317,10.579827,1.7933999,-31.293,-69.186195,217.23633,-28.541403,-2.792151,-0.14578828,0.6207243,0.17133537
-2.6129718,6.09676,10.033501,2.2326,-32.805798,-69.5156,216.67487,-28.398188,-3.318826,-0.17095234,0.63126624,0.43681526
-2.300379,6.2500634,10.331055,3.1964,-33.7574,-69.8206,216.1014,-28.289783,-3.605579,-0.17444965,0.32688284,0.511558
-2.0367174,6.193725,11.373955,3.8551998,-34.4894,-69.357,215.59355,-28.185366,-3.6380944,-0.03608901,0.009359495,0.5065618
-1.9557635,5.6750064,11.779846,3.8063998,-35.5508,-69.0886,215.21013,-28.19587,-3.452593,0.19926398,-0.06450057,0.475419
-2.2292264,4.986823,11.328838,3.6478,-36.9172,-67.941795,214.87312,-28.430794,-3.2335045,0.4375647,0.027528904,0.49287233
-2.5033624,4.648118,10.538901,3.0988,-38.0518,-67.2952,214.61182,-28.69209,-3.1250398,0.5124406,0.17589854,0.59632635
-2.4821138,4.4537387,9.535208,3.355,-39.1986,-67.222,213.87433,-29.285288,-2.9870286,0.4076876,0.23014031,0.7842823
-2.150891,4.6032267,9.512836,3.3916,-40.5284,-65.697,213.41983,-29.526548,-2.8906012,0.2560205,0.13449694,0.88896877
-1.4990696,4.794314,10.32103,3.5623999,-41.1628,-66.0996,212.70906,-29.767544,-2.6138327,0.15942784,-0.056290198,0.92305934
-0.6488287,4.7236104,11.081637,2.8669999,-43.432,-64.782,212.06036,-29.930738,-2.18287,0.23645215,-0.20624195,0.8366755
-0.22535424,4.575095,11.215039,2.5498,-43.9078,-64.989395,211.53896,-30.149597,-1.6824164,0.352763,-0.22459456,0.71155477
0.20388123,4.1719713,10.986019,2.1471999,-43.9444,-63.8182,211.2561,-30.353252,-1.3727458,0.46977335,-0.118942186,0.575459
0.362946,3.8283286,10.594342,1.3542,-46.238,-62.9032,210.87962,-30.735952,-1.017525,0.5523934,0.04451589,0.48899195
0.36631286,3.4384477,9.928905,2.135,-46.5308,-62.219997,210.49564,-31.1999,-0.8469478,0.6580291,0.32661638,0.4326851
0.2599205,3.1536126,8.953192,1.6714,-47.9338,-60.0118,210.09953,-29.579153,-0.4921651,0.78396595,0.6514508,0.4405624
0.08611644,2.9439702,7.8509617,1.7324,-48.7878,-59.4506,209.49237,-30.070684,-0.76243293,0.8937318,0.8942814,0.50549597
-0.27159226,3.0905404,6.697031,2.7328,-50.9838,-58.133,208.44032,-31.113214,-1.3551065,1.003098,1.0161546,0.669054
-0.3776853,3.2771385,6.340819,2.806,-53.802,-54.6926,207.49796,-31.993011,-1.7848164,1.1145126,0.9228928,0.82781565
-0.2327613,3.3969982,6.171055,2.501,-53.8508,-53.619,206.48485,-32.981255,-2.0535479,1.2578528,0.7398164,0.94261104
-0.017283143,3.5493293,5.9457755,3.233,-55.1684,-52.3868,205.80736,-33.72646,-2.0997012,1.4197954,0.515838,1.019702
0.17462708,3.9938278,5.2785416,2.44,-57.2912,-50.0932,204.55023,-35.426586,-1.8631282,1.612531,0.21082178,1.0416352
0.35419223,4.7125373,4.4625673,-0.54899997,-61.365997,-44.0542,202.879,-38.651012,-0.78511673,1.4256243,-0.19886428,0.8492825
0.5216367,4.9045224,4.6535797,0.121999994,-62.159,-42.9074,202.4315,-39.869625,-0.1908307,1.2469944,-0.28819582,0.74396324
0.75701666,5.025205,5.0926914,-1.0126,-62.927597,-41.5654,202.1379,-40.89042,0.40595824,0.99845153,-0.33018032,0.59912425
1.0059388,5.149853,5.6727614,-1.3786,-64.3428,-39.4548,201.946,-41.69613,0.92589295,0.7473773,-0.1737835,0.44277737
1.2011411,5.207314,6.115165,-3.1109998,-64.904,-38.5886,201.75122,-42.28285,1.2436082,0.50612885,0.08113782,0.30942956
1.3427731,5.319318,6.494796,-3.0377998,-65.5872,-36.5634,201.58673,-42.55737,1.3270195,0.32315236,0.3045999,0.23088974
1.5163527,5.4683566,6.6811695,-2.562,-65.9532,-35.5874,201.25717,-42.812267,1.2690244,0.13741137,0.5735938,0.1573794
1.669806,5.7339635,6.567295,-1.9642,-66.0386,-35.8924,200.82758,-42.906624,1.0146294,-0.023082312,0.6663394,0.09341175
1.8730887,6.1873655,6.5655,-2.0008,-66.795,-35.2214,200.40788,-42.841007,0.72422975,-0.23253848,0.5667157,-0.01603771
1.9797056,6.4890347,6.8691144,-2.0983999,-66.8926,-35.1238,200.21396,-42.73652,0.8981452,-0.37587863,0.34313706,-0.15058461
1.9036896,6.7080293,7.6333885,-1.9153999,-67.0268,-34.648,200.16689,-42.509068,2.5922916,-0.44534206,-0.016770482,-0.32340217
1.757793,6.7154365,8.473978,-1.4274,-67.2952,-33.4768,200.39247,-42.135723,2.4788833,-0.39884436,-0.25240657,-0.38768625
1.9055601,6.688801,8.721478,-1.1223999,-67.1,-33.4768,200.77048,-41.83507,2.427131,-0.26459724,-0.17654805,-0.3367253
2.4549546,6.5324297,7.5816884,-0.7442,-67.636795,-33.7818,201.06378,-41.612347,2.37612,-0.37221476,-0.027062595,-0.3619393
2.4793456,6.7876368,7.12492,-1.0491999,-67.770996,-32.6106,201.33112,-41.34224,2.811486,-0.71736693,0.015787901,-0.5122741
1.8157027,7.0028157,7.770232,-0.0488,-67.636795,-32.7082,201.68011,-40.81331,2.8813012,-1.0438168,-0.064117536,-0.707741
1.0859201,6.8170404,8.996437,0.8662,-67.4538,-33.4768,202.18669,-39.945415,2.5361729,-1.1321824,-0.1720848,-0.8562272
0.70883334,6.380398,9.712977,0.7564,-67.4538,-33.2816,202.8458,-39.013733,2.189794,-1.0196186,-0.24214777,-0.89646304
0.3681085,5.961263,9.935413,1.1712,-67.3806,-33.8672,203.56886,-38.168568,1.8797879,-0.8703664,-0.25666997,-0.8162245
0.1479916,5.6135798,9.6621,1.8909999,-66.7462,-34.343,204.2373,-37.446915,1.6285833,-0.72827524,-0.2036606,-0.6029213
0.35366848,5.432668,9.332523,2.806,-66.307,-33.6476,204.53369,-36.828358,1.4701272,-0.6618595,-0.24261409,-0.38025862
0.873734,5.443068,9.173758,2.4156,-66.2826,-34.3308,204.69069,-36.276375,1.4902347,-0.60410374,-0.38307312,-0.1597276
1.4479682,5.6938605,9.151013,2.7937999,-66.7584,-35.209198,204.98865,-35.778393,1.7191834,-0.54759705,-0.5357228,-0.03612232
1.8998739,5.7648635,8.960449,3.0256,-66.1606,-35.7826,204.97566,-35.468212,1.9616377,-0.48586103,-0.6326485,-0.042767227
2.0589387,5.725883,8.741081,2.3058,-66.49,-34.818798,205.31293,-35.0571,2.3893814,-0.45430186,-0.70938975,-0.1288346
2.0712838,5.5381627,8.416816,2.2447999,-65.5628,-34.1112,205.75458,-34.67947,2.896776,-0.44484246,-0.7445461,-0.24764356
2.011279,5.2750998,8.261717,1.3298,-66.0264,-35.197,206.09088,-34.243713,3.8637204,-0.4687741,-0.6995306,-0.33439377
1.9431192,4.939388,8.343194,1.9275999,-66.0264,-34.123398,206.45526,-33.736332,4.7806444,-0.4527364,-0.50221515,-0.37944257
1.7950528,4.6903906,8.336461,2.44,-65.6482,-34.1112,206.9147,-33.06728,5.446068,-0.3662027,-0.25563744,-0.40167552
1.5568297,4.613926,8.119411,2.2203999,-66.1118,-34.4162,207.17874,-32.86818,5.467859,-0.24539529,-0.05933786,-0.41904557
1.1116577,4.7019877,7.4653454,3.233,-65.611595,-34.208797,207.4247,-32.670174,5.225413,-0.03144257,0.14717056,-0.44041252
0.6182278,4.8089037,6.690073,3.6478,-65.3676,-33.3304,207.49648,-32.689484,4.9015718,0.109033115,0.22879134,-0.43425056
0.27234045,4.8557405,6.036905,3.8307998,-65.7946,-33.245,207.63379,-32.768864,4.6597543,0.19311868,0.20177871,-0.4066051
-0.06382044,4.9900403,5.673884,3.7331998,-65.6726,-32.5618,207.66597,-32.943684,4.3189206,0.23513648,0.10218836,-0.38352278
-0.41988313,5.173271,5.410896,4.8922,-66.2826,-31.695599,207.73123,-33.16533,4.0693655,0.25147396,-0.039086714,-0.3632383
-0.77415013,5.4477816,5.4007206,5.3924,-66.233795,-31.109999,207.86621,-33.407654,3.9516923,0.25069124,-0.24689414,-0.33359438
-0.9700258,5.6177697,5.498733,5.0996,-66.1484,-30.9026,208.10872,-33.575245,3.9630837,0.23830073,-0.4341007,-0.3136097
-1.147496,5.828684,5.8775406,5.795,-66.246,-30.133999,208.37582,-33.81489,4.1156263,0.22329555,-0.59755874,-0.29519045
-1.2179753,5.957896,6.385261,5.1728,-66.551,-28.779799,208.70787,-33.973858,4.298014,0.22361198,-0.70084625,-0.27154192
-1.2221651,6.0241857,7.02167,5.7462,-67.148796,-28.792,209.0765,-34.23456,4.608534,0.24566175,-0.7262768,-0.2381675
-1.2630162,6.1473374,7.379229,5.8315997,-67.4538,-27.913599,209.48264,-34.80181,4.2351885,0.26942688,-0.6343306,-0.20725785
-1.4746786,6.354436,7.678953,5.246,-67.2586,-27.1328,209.84158,-35.973892,1.9281557,0.27627164,-0.4308032,-0.16405761
-1.6383822,6.572308,7.7496567,5.2093997,-67.9174,-26.2788,210.1746,-36.363747,1.669759,0.25387213,-0.22474444,-0.115994446
-1.6335189,6.8231006,7.746664,5.8926,-68.3078,-25.6932,210.11604,-36.62529,1.5973356,0.15078445,0.022116385,-0.047030628
-1.4989198,7.011195,7.8513355,5.6974,-68.2346,-25.7908,209.91917,-36.776543,1.4936838,0.02789529,0.15621363,-0.011291347
-1.4007577,7.2031054,8.248249,6.1976,-67.954,-24.522,209.61607,-36.775192,1.3564775,-0.13214873,0.2556541,0.021300344
-1.3026702,7.304335,8.733824,5.5875998,-68.1736,-24.6196,209.51938,-36.696617,1.241893,-0.22372855,0.2766047,0.031692382
-1.3850456,7.3594766,9.468768,6.4782,-68.2346,-23.4484,209.09253,-36.43771,1.0071324,-0.2486761,0.26922703,0.06791463
-1.3153894,7.3815484,9.77156,6.5758,-68.3444,-23.753399,208.68465,-36.231365,0.8534696,-0.19929728,0.349732,0.20432676
-0.9948656,7.2959557,9.926435,6.0878,-68.1736,-23.4484,208.14124,-36.063145,0.70833254,-0.13010031,0.5704629,0.40767094
-0.3309984,7.4414783,9.360207,5.795,-67.941795,-22.3748,207.09985,-35.93874,0.42284718,-0.027845329,0.8303304,0.6067184
0.42295069,7.6948895,8.820838,5.795,-67.770996,-22.3748,206.54764,-35.919807,0.25072765,-0.07369353,0.6519005,0.6699699
0.6669348,8.126519,9.419088,4.4652,-68.5274,-22.1918,205.58563,-35.854885,0.16607285,-0.17927928,0.1349799,0.61053216
0.664391,8.121731,10.630106,4.88,-68.100395,-21.1182,204.92365,-35.71206,0.39779297,-0.15158384,-0.3216202,0.44863954
0.7225252,7.1734023,11.196933,3.9039998,-67.795395,-21.2036,204.7759,-35.59073,0.84027904,-0.02473105,-0.45791575,0.29620636
0.8837597,6.0303206,11.226562,4.1967998,-67.6734,-20.910799,204.6049,-35.57641,1.3040345,0.09975689,-0.4407789,0.19490065
0.66581255,5.04376,10.693253,3.599,-67.8442,-20.2398,204.48273,-35.682938,1.6715754,0.2245779,-0.19458422,0.15538093
0.19422962,4.600159,9.856404,3.6966,-67.795395,-19.459,204.23221,-35.875072,1.8290347,0.2730241,0.20419353,0.23062328
-0.18599954,4.7147818,9.103727,3.3062,-67.4294,-18.9588,204.04662,-35.97694,1.7938647,0.24815984,0.5319923,0.35537767
-0.3561375,4.9961004,8.223484,2.5986,-67.6124,-18.483,203.13797,-35.52368,1.1350788,0.16690543,0.7303736,0.5217002
-0.10631752,5.1269584,7.864803,2.623,-67.039,-17.7876,202.23398,-35.646973,0.89132565,0.102421515,0.55973774,0.5041803
0.10945991,5.1829977,8.058958,2.2082,-67.3806,-17.202,201.44482,-35.722363,0.77625936,0.022915773,0.11303005,0.3895015
0.2658312,5.0721164,8.720057,1.7202,-67.014595,-16.6164,201.13644,-35.730305,0.9051,0.024031585,-0.25292286,0.26936024
0.43866265,4.788104,9.174955,2.2082,-67.0512,-16.0308,200.89268,-35.703953,1.2122624,0.12074081,-0.28554785,0.18236026
0.5208137,4.3252,9.160291,1.22,-66.8316,-16.226,200.71893,-35.550747,1.4955755,0.28796268,-0.026396438,0.11812615
0.3990835,3.8833952,8.4973955,1.4152,-66.978,-15.738,200.68854,-34.36129,1.6644146,0.4616962,0.45025498,0.12650307
0.19460371,3.6988173,7.5201874,1.4274,-66.7828,-15.4452,200.23141,-34.57322,1.4544588,0.56688225,0.8564437,0.17326723
-0.09210195,3.8085763,6.3025866,1.708,-66.978,-14.274,199.50377,-35.038395,0.92783165,0.5799556,1.2046102,0.26318166
-0.23665187,4.02787,5.5543237,2.3058,-66.855995,-12.7123995,198.54846,-35.51926,0.21313398,0.51710373,1.3499489,0.3459349
-0.3211223,4.378022,5.0497456,1.5128,-66.7828,-12.2244,197.62297,-35.944683,-0.5452477,0.4149487,1.3450693,0.40264145
-0.44614452,4.8321724,4.8610525,1.2078,-66.855995,-11.7364,196.81735,-36.191982,-1.0287914,0.33572605,1.2156518,0.39061734
-0.61381346,5.404686,4.9319806,0.92719996,-66.4778,-11.1508,195.5291,-36.60072,-1.8380599,0.27177507,0.87970924,0.27730417
-0.67531455,5.735385,5.19452,0.5002,-66.795,-10.089399,194.95284,-36.85953,-2.2652407,0.25706968,0.52563053,0.12017458
-0.7556699,5.8083334,5.601983,0.4026,-66.673,-9.406199,194.558,-37.024956,-2.4617465,0.27284092,0.20485969,-0.049212288
-0.7769933,5.8098297,5.974431,0.9882,-67.2586,-9.3208,194.2849,-37.271973,-2.6459696,0.2877295,0.03527297,-0.1672052
-0.7566426,5.7375546,6.4071083,1.403,-66.7584,-8.6254,194.38596,-37.519623,-2.760815,0.29617304,-0.05702297,-0.28359935
-0.8296657,5.602881,6.9359274,1.1834,-67.1854,-8.052,194.44264,-37.763763,-2.8776715,0.29215944,-0.06335145,-0.38545462
-1.0326492,5.430648,7.48622,2.0008,-66.673,-7.5518,194.5675,-38.001446,-3.0462406,0.30926302,0.03953637,-0.43433383
-1.2440871,5.292757,7.810634,1.7933999,-66.843796,-7.1614,194.65971,-38.252033,-3.317581,0.35564414,0.20677488,-0.40245825
-1.4480431,5.246519,7.8291893,2.1959999,-66.7096,-6.771,194.75996,-38.416565,-3.593458,0.42122722,0.43388417,-0.29212615
-1.5071499,5.36174,7.4592853,2.5864,-66.7096,-5.4045997,194.53185,-38.854424,-4.244904,0.45087117,0.6044535,-0.14563839
-1.3030443,5.7107697,6.99683,2.5864,-66.8926,-5.5998,194.2102,-39.123238,-4.5658426,0.4172969,0.66838783,-0.008476838
-1.066991,6.291588,6.5974474,2.7816,-66.8926,-4.2455997,193.57138,-39.626705,-5.1593814,0.2955735,0.70061314,0.07545884
-0.9641151,6.7621236,6.2125793,2.6718,-66.843796,-3.172,193.13834,-39.916065,-5.5790434,0.16840428,0.7026616,0.079872124
-0.89954644,7.073744,5.9567738,2.7816,-66.685196,-3.5502,192.52682,-40.2321,-5.9869895,0.047413666,0.6510345,0.07014625
-0.9859622,7.517569,5.9189157,2.1838,-66.6364,-2.2814,191.88849,-40.919285,-6.317045,-0.11183097,0.54040253,0.08929824
-1.1161469,7.9137344,6.230685,2.7816,-66.538795,-2.5742,191.42255,-42.4582,-6.4457455,-0.2181828,0.4167473,0.17404996
-0.9864859,8.369531,6.5639286,2.2691998,-67.002396,-2.5864,190.8911,-42.465702,-6.593762,-0.25325593,0.37016633,0.3322121
-0.16213235,8.4394865,6.15235,2.1594,-67.1122,-2.684,190.1942,-42.291245,-6.5764394,-0.41146803,0.094061255,0.33514318
0.27069443,8.787244,6.9508915,1.9764,-66.673,-2.6718,189.85976,-41.9396,-6.380076,-0.7335379,-0.4202613,0.11855915
0.44150576,8.497171,8.71856,1.3908,-66.526596,-2.8669999,189.90419,-41.294136,-6.0284343,-0.8903344,-0.7981384,-0.1160111
0.3593547,7.771878,10.796727,2.2814,-66.697395,-3.355,190.52246,-40.229023,-5.4127603,-0.7668291,-0.93773144,-0.29552355
0.41883567,6.9074216,11.666646,1.7811999,-66.6608,-4.0382,191.23051,-39.55484,-4.9678035,-0.5077776,-0.86630285,-0.32668298
0.46425068,5.9954553,11.745954,2.2935998,-66.5144,-4.819,191.75444,-39.115932,-4.5898724,-0.15614702,-0.5850017,-0.24731049
0.68249714,5.3998976,11.013851,3.5746,-67.014595,-3.7575998,192.093,-38.944042,-4.330171,0.05995406,-0.3894349,-0.1302835
0.90021986,5.2986674,10.231321,2.5742,-66.8682,-3.4648,192.33382,-38.98783,-4.053167,0.14926895,-0.35471153,-0.013156584
1.1255741,5.375806,10.01113,2.684,-66.6486,-2.8669999,192.40692,-39.091423,-3.8144522,0.19673258,-0.33069658,-0.010825038
1.1061212,5.1743937,9.235109,2.8913999,-66.429,-2.1838,192.5287,-39.307747,-3.552356,0.2938748,-0.19873105,-0.11382944
0.9152584,4.964901,8.390704,3.2818,-66.7096,-2.7694,192.66495,-39.169746,-3.1919649,0.3126271,-0.12292247,-0.20121248
0.57588035,4.764237,7.422998,3.3916,-66.1728,-1.3054,192.83366,-38.674133,-2.4089992,0.23235528,-0.011324655,-0.25943452
0.3569605,4.6133275,6.82542,4.5994,-66.1362,-1.6836,192.9742,-38.852745,-2.5383945,0.12588687,0.088165775,-0.25745273
0.09816227,4.612953,6.405013,3.7087998,-65.8678,-0.8052,193.08409,-38.923935,-2.7359052,-0.01880226,0.14700402,-0.21033882
-0.027757775,4.827309,6.339921,4.8922,-66.1728,-0.90279996,193.07494,-38.900356,-2.9366894,-0.065649696,0.092029475,-0.16415754
-0.041150343,5.0732384,6.4024696,4.0992,-65.941,-0.8052,193.08923,-38.84336,-3.0745502,-0.038104136,-0.020251147,-0.15596382
-0.09060557,5.352537,6.4812536,3.9039998,-65.9288,-0.5124,193.1699,-38.82095,-3.1162076,0.05890486,-0.15486465,-0.18828905
-0.26156655,5.5522285,6.383615,4.9165998,-65.611595,-0.5002,193.3768,-38.881737,-3.1142917,0.1754489,-0.21708365,-0.24589491
-0.5562778,5.6699934,6.0831428,4.6116,-65.4774,0.57339996,193.63445,-39.037945,-3.1083806,0.26769486,-0.22267936,-0.30794737
-0.9328408,5.574824,5.6642323,4.8068,-65.7214,0.95159996,194.04079,-39.34627,-3.1546953,0.30982924,-0.20860681,-0.36185604
-1.1852795,5.6046767,5.554249,6.3196,-65.2456,1.7445999,194.34792,-39.59457,-3.217009,0.29237595,-0.2134531,-0.34575173
-1.3875896,5.677924,5.599963,5.5388,-64.7576,1.6592,194.737,-39.905914,-3.2854743,0.27523908,-0.20399368,-0.2791694
-1.4142998,5.711293,5.6521864,6.7222,-65.2212,1.8421999,194.737,-39.905914,-3.2854743,0.27224138,-0.20487633,-0.25730282
-1.4123546,5.914726,5.9859533,6.9296,-64.843,2.1471999,194.91113,-40.054993,-3.302327,0.30285126,-0.2002632,-0.14890257
-1.2076503,6.094889,6.135516,6.4416,-64.4526,3.1232,195.31235,-40.55218,-3.227562,0.34736714,-0.15389873,-0.079555705
-1.1500398,6.2802157,6.151078,7.1126,-65.294395,3.5014,195.45569,-40.840378,-3.1768522,0.36545327,-0.102987744,-0.05147722
-1.2280759,6.6213145,6.1732993,7.3444,-64.4038,4.7824,195.53937,-41.253918,-3.1361861,0.35994086,-0.033790775,-0.029960375
-1.3406781,6.7853923,6.09676,6.4416,-64.3062,4.1967998,195.55583,-41.599976,-3.1695168,0.33540964,0.007510911,-0.017886294
-1.5410429,6.9598694,5.9498906,6.3684,-63.7938,5.4778,195.50887,-41.863834,-3.2457986,0.28060165,0.034939893,0.004912902
-1.7290626,7.299173,5.8074355,6.6612,-63.806,6.6489997,195.46774,-42.417362,-3.5369885,0.17604843,0.042550728,0.042334225
-1.675193,7.7855697,6.0085483,7.259,-63.806,6.161,195.24977,-44.502754,-4.9158688,-0.022366194,-0.022849157,0.0686807
-1.6876878,8.232837,6.76564,7.0638,-63.5864,6.9417996,195.09735,-44.821854,-5.0700407,-0.20084609,-0.143107,0.021550152
-1.7296611,8.415095,7.650971,7.2834,-63.317997,6.954,195.08537,-44.703888,-5.004967,-0.2921095,-0.13348104,6.99464E-4
-1.5572785,8.469414,8.527772,7.0759997,-63.5254,6.466,195.08725,-44.370945,-4.913074,-0.3172569,0.066932045,0.031509187
-1.490615,8.447492,8.963143,6.6856,-63.159397,6.954,195.0386,-44.19578,-4.937199,-0.29207617,0.3574261,0.05720616
-1.9488802,8.732701,8.354941,7.0759997,-63.257,6.466,194.69862,-43.977737,-5.151398,-0.23984954,0.90610564,0.10801723
-2.1991491,8.816423,7.252411,6.0878,-63.0252,6.7588,194.00928,-43.826557,-5.640624,-0.32515085,1.060837,0.19538361
-1.927482,9.030031,7.163601,6.0878,-63.2082,6.6612,193.27829,-43.587967,-6.143454,-0.5919131,0.7213972,0.23380417
-1.7426047,9.305439,8.540641,6.5025997,-62.647,6.771,192.69046,-43.14931,-6.4396124,-0.65901166,0.24356335,0.14423947
-1.6639702,9.016863,9.766323,5.2093997,-62.537197,6.771,192.45029,-42.632904,-6.4970627,-0.4768679,-0.14517209,0.013023353
-1.7480665,7.908123,10.481516,5.7096,-62.7324,5.9902,192.52727,-42.283806,-6.378363,0.004729709,-0.37497932,-0.16076015
-2.0242226,6.785093,9.811888,6.1366,-61.8662,6.8808,192.83455,-42.27085,-6.2445908,0.4261068,-0.23508652,-0.16279192
-2.1495442,5.8946743,8.2998,5.856,-61.5002,7.1858,193.0126,-42.612076,-6.1973605,0.65862864,-0.031542495,-0.03867037
-1.8828151,5.3462524,6.82759,5.7706,-60.9512,7.4908,193.17017,-42.4897,-6.82536,0.58834916,-0.06356795,0.08701665
-1.5072997,5.4489036,6.4188547,6.0024,-60.1704,8.6742,193.12158,-43.065136,-6.6526275,0.115045175,-0.36673564,0.13802756
-0.79405195,5.631013,7.538219,6.2219996,-59.718998,8.4911995,193.29907,-43.065434,-6.218614,-0.3168572,-0.58841574,0.039819486
-0.16849194,5.424064,9.228675,7.0271997,-59.5116,8.4058,193.82623,-41.923702,-5.5013566,-0.50489646,-0.55683994,-0.21192093
-0.13976152,4.923077,9.587357,6.2342,-59.4628,8.5034,194.23224,-41.445335,-5.2799106,-0.418013,-0.2668122,-0.3074977
-0.29306525,4.3552027,9.319804,6.4416,-59.3042,7.9178,194.47833,-41.15357,-5.2567487,-0.30932963,0.00942611,-0.2829998
-0.46140757,3.7817912,8.572065,6.7588,-58.743,8.2228,194.88895,-38.44826,-5.105125,-0.079872124,0.5345237,-0.05625689
-0.47457567,3.4033577,7.475296,7.0516,-58.926,7.8324,194.5353,-38.40823,-5.5022635,0.111880936,0.813843,0.24646114
-0.435221,3.3905637,6.508338,6.8808,-58.2916,8.1374,194.12975,-38.507565,-5.7688046,0.20379384,0.8000369,0.48246363
-0.44554597,3.741015,5.9733834,6.1854,-58.315998,8.235,193.36623,-38.749416,-6.022524,0.24068223,0.5600042,0.70912325
-0.27922377,4.239757,6.128932,5.5144,-57.6084,8.7352,192.5782,-39.032997,-5.993153,0.2985712,0.25638688,0.8484332
-0.030974984,4.6707134,6.381071,5.5144,-57.6084,8.7352,191.87761,-39.364216,-5.6974416,0.41767994,0.0880825,0.8607904
0.19205987,5.029844,6.3284736,5.0264,-57.34,9.2232,191.28726,-39.80828,-5.2770715,0.5847186,6.161945E-4,0.7555377
0.17597382,5.2024508,5.906271,2.7328,-57.1082,10.492,190.81262,-40.371838,-4.8741217,0.68682367,-0.008326952,0.59116364
0.12674305,5.196914,5.367127,3.4404,-56.7178,10.5042,190.44345,-40.989582,-4.5583315,0.6651903,0.016620597,0.4336677
0.054093994,5.0995,5.016825,3.2818,-55.693,11.5046,190.25467,-41.37886,-4.4026427,0.5464979,0.014239089,0.32486773
-0.069057755,5.119327,5.041815,2.074,-55.985798,12.1756,190.09663,-41.71366,-4.278153,0.37572876,-0.0043300153,0.2495088
-0.20732291,5.213524,5.534721,2.2935998,-55.4124,12.578199,189.8721,-42.148865,-4.0848117,0.19966367,0.015621363,0.19946381
-0.34476504,5.4857893,6.159757,2.0862,-55.534397,12.285399,189.72469,-42.31376,-3.9871068,0.13184896,0.049911752,0.16858748
-0.45609543,5.807959,6.3752356,2.806,-55.0464,12.3952,189.58865,-42.43969,-3.9200156,0.1601939,0.066332504,0.16618931
-0.45512277,6.0873327,6.3995514,2.5254,-54.4974,12.993,189.48654,-42.535,-3.8830478,0.18375918,0.02934418,0.16975325
-0.26433483,6.381894,6.4053874,2.3424,-54.1436,12.993,189.32178,-42.75075,-3.7716575,0.16923699,-0.048213053,0.15809552
0.023493104,6.7759647,6.650868,2.1471999,-53.960598,13.395599,189.27736,-42.84826,-3.6885324,0.12392171,-0.10423679,0.121656775
0.1575684,7.0813003,6.941539,1.6592,-53.570198,14.274,189.25699,-42.962234,-3.5381382,0.06604939,-0.09890754,0.03270827
0.046986207,7.393968,7.2394676,2.3912,-53.033398,13.7982,189.29526,-43.01992,-3.453017,0.010042304,-0.05365888,-0.10332082
-0.26560676,7.5873,7.282563,1.1834,-53.1554,14.091,189.37395,-43.02068,-3.4891784,-0.059904095,0.06161945,-0.19929728
-0.72072953,8.017433,7.241338,1.8177999,-52.4356,13.908,189.45418,-42.95927,-3.6496904,-0.17714758,0.24840964,-0.19113687
-0.791957,8.388834,7.3207207,2.5376,-51.947598,14.115399,189.40376,-42.760735,-3.9983203,-0.2798522,0.33920673,-0.11243051
-0.69304657,9.020828,7.262661,2.135,-51.972,14.017799,189.23273,-42.528767,-4.289967,-0.35939127,0.51800305,-0.02576359
-0.10803835,8.827347,7.1731033,2.4156,-52.337997,13.529799,188.97713,-42.239243,-4.6058087,-0.5046799,0.23999943,-0.09862442
0.4607342,8.398785,8.361974,2.7328,-51.9354,12.4684,189.07082,-41.582474,-4.78862,-0.7209642,-0.23493664,-0.3591248
0.013317747,7.9563065,9.463756,2.2326,-51.9842,12.0658,189.46855,-40.925625,-4.8331,-0.7392835,-0.31174445,-0.46988994
-0.35381812,7.2270474,10.116775,2.4644,-51.410797,11.0166,190.06673,-40.06433,-4.9187074,-0.5612366,-0.18982121,-0.40445673
-0.45669398,6.481553,10.118944,3.5623999,-51.398598,10.2358,190.40134,-39.582417,-4.9951367,-0.36099005,-0.2083237,-0.22522742
-0.31416416,6.0390744,9.972224,3.1476,-51.7646,10.418799,190.63411,-39.254326,-4.9737887,-0.15616366,-0.17914605,0.0014988515
0.20283377,5.694459,9.384373,3.6843998,-51.1424,10.0528,190.72595,-39.109516,-4.8320217,0.0034640122,-0.3627387,0.1868235
0.7528268,5.77055,9.161263,2.7816,-51.093597,10.0406,190.81036,-39.09618,-4.464135,0.06896382,-0.67153543,0.28110126
1.2458079,5.8874917,9.252691,2.7816,-51.093597,10.0406,190.97931,-39.135628,-3.8522363,0.13048334,-0.84821665,0.25850192
1.4761002,5.794043,9.138069,3.3062,-50.459198,9.8698,191.26147,-39.22393,-3.1487377,0.1874397,-0.858309,0.13579594
1.2312931,5.49372,8.402077,3.721,-50.1908,9.577,191.65584,-39.30104,-2.4417455,0.17051934,-0.6896049,-0.089081734
0.70494276,5.144466,7.6718454,3.5379999,-49.8858,8.8084,192.17824,-38.45918,-0.68184143,0.029843798,-0.42559054,-0.20742439
0.397213,4.9038486,7.2372227,3.1232,-50.080997,8.8084,192.52963,-38.46514,-0.51537776,-0.13669525,-0.17478274,-0.22850823
0.25378537,4.779051,6.9888244,3.2574,-49.471,8.4302,192.72665,-38.304245,-0.5588141,-0.3160578,0.11489529,-0.1861407
0.25400984,4.9283147,7.0398507,2.9401999,-49.8126,8.906,192.7458,-38.009937,-0.75378174,-0.3846719,0.32511753,-0.09764184
0.31169513,5.173271,6.9871783,3.6599998,-49.3978,7.7469997,192.64143,-37.68961,-1.0187328,-0.27284092,0.35344583,-0.053159263
0.30279168,5.344906,6.7477584,3.6478,-49.5808,7.8445997,192.45387,-37.43954,-1.3422068,-0.02081738,0.22870807,-0.03339108
0.20245968,5.469404,6.2842555,3.294,-48.5682,7.1858,192.37129,-37.473255,-1.4873574,0.20694143,0.07774043,-0.030526608
0.0863409,5.604527,5.850456,3.9772,-48.8488,7.7591996,192.35867,-37.601147,-1.525693,0.34446937,-0.05470808,-0.03502316
-0.05753566,5.7786303,5.21936,3.9162,-48.1046,6.8076,192.44096,-38.021545,-1.481192,0.40700477,-0.16783805,-0.05275957
-0.077736735,5.945551,5.080197,3.7942,-48.4096,7.869,192.56673,-38.37374,-1.3950684,0.3591248,-0.21258709,-0.07239453
-0.046387658,6.0996776,5.107506,4.1236,-47.946,7.9788,192.67061,-38.582317,-1.3249356,0.27272436,-0.25199023,-0.11033212
0.032770637,6.330868,5.469554,3.6234,-47.982597,7.686,192.87553,-38.81764,-1.2168257,0.15221669,-0.2562203,-0.16342478
-0.006359598,6.5032506,6.080225,4.331,-47.7996,7.198,193.19884,-38.974277,-1.1264511,0.032291923,-0.1715019,-0.21625096
-0.06950667,6.625205,6.567819,3.233,-47.592197,7.015,193.35318,-38.997932,-1.1299975,-0.021533499,-0.07527565,-0.22957408
-0.19632454,6.7494044,7.1252937,4.1602,-46.9212,7.2223997,193.53552,-38.999733,-1.2066333,-0.036288857,0.0667655,-0.21828273
-0.4014777,6.9364514,7.5516114,4.5506,-47.201797,6.6368,193.63322,-38.980576,-1.3726838,2.4980857E-4,0.23132274,-0.17305073
-0.63483757,7.144522,7.7112746,3.8795998,-46.7138,6.344,193.635,-38.978127,-1.611136,0.02729575,0.297955,-0.124821015
-0.8441057,7.351546,7.824625,5.0874,-46.5552,5.0874,193.58217,-38.99329,-1.7869848,0.04273392,0.3188057,-0.056739856
-0.96314245,7.605481,7.974562,4.0626,-46.9822,6.2464,193.44943,-39.036057,-2.0342948,0.05199349,0.31615773,0.027145864
-0.9701006,7.9566803,8.08694,5.1972,-46.055,5.9779997,193.25842,-39.095726,-2.2285938,0.07412653,0.29340848,0.11129805
-0.8243536,8.125696,8.130858,4.2334,-45.5182,5.2093997,193.02429,-39.17807,-2.3643732,0.09705896,0.26414758,0.15409859
-0.5885247,8.029928,8.077213,5.0141997,-45.9208,5.2948,192.77817,-39.280396,-2.4571168,0.10375383,0.24469583,0.15896152
-0.46133274,7.868095,8.082451,4.6116,-45.9818,4.6116,192.62,-39.352055,-2.5077822,0.10505283,0.25818548,0.15628025
-0.55956984,7.6155815,7.941193,4.0382,-45.481598,4.4286,192.37122,-39.45881,-2.5987551,0.1010559,0.37284762,0.15206681
-1.2189479,7.7266874,7.537246,3.9284,-45.566998,4.5262,192.05235,-39.565903,-2.7765405,0.08266998,0.6135798,0.18202718
-1.8666543,7.704541,6.1266127,3.4648,-44.8838,4.5383997,191.51898,-39.871414,-3.2687132,-0.08152086,0.8450025,0.32679957
-1.8980782,7.6994534,5.9974003,4.148,-45.2132,4.3431997,190.55994,-42.96557,-5.6480846,-0.38085815,0.60095614,0.48159763
-1.3801076,7.6478286,7.0116444,3.6599998,-44.9326,3.3672,189.84627,-43.25914,-6.044336,-0.5212339,0.24016596,0.5820873
-0.39870942,7.338453,8.552836,3.355,-45.261997,2.684,189.38794,-42.864067,-5.7863297,-0.46894065,-0.16357465,0.5985913
0.16198272,7.0350623,9.608754,2.2691998,-44.7618,2.7816,189.20709,-42.621338,-5.478635,-0.25971764,-0.3633549,0.56288534
0.36982936,6.506243,9.964368,2.0496,-45.4694,1.5006,189.05096,-42.429653,-4.925291,0.12826838,-0.31402603,0.5187358
-0.011073183,6.1868415,8.655039,2.6474,-45.5182,1.7933999,188.8868,-42.56153,-4.439402,0.4914401,0.01688706,0.5059956
-0.42227733,6.2802157,7.1185603,1.8787999,-44.871597,1.3176,188.58011,-42.95847,-4.1259646,0.51024234,0.14322358,0.52588034
-0.34192193,6.299743,6.053889,1.8665999,-45.1156,1.708,188.17241,-43.42096,-3.899867,0.3034175,0.050144907,0.46246228
-0.3119944,6.3975315,5.769652,1.8787999,-44.5788,1.7202,187.74187,-43.8171,-3.5779288,0.06833097,-0.15704632,0.32719928
-0.23852235,6.559963,6.356157,1.1834,-44.53,1.6226,187.7078,-43.813797,-3.2679842,-0.25956777,-0.495004,0.1076675
-0.06120178,6.3197947,7.804798,1.6836,-44.835,0.43919998,187.99556,-43.523087,-2.894406,-0.46929038,-0.660294,-0.12598678
0.044068277,5.730297,8.78672,1.281,-44.652,0.8418,188.31198,-43.18357,-2.6554675,-0.48546132,-0.58296996,-0.3199548
-0.06681319,4.977695,8.933365,1.6836,-44.712997,-0.6222,189.03691,-42.35596,-2.38276,-0.41341653,-0.38197395,-0.43100306
-0.30503625,4.34585,8.530316,2.9889998,-44.6032,-1.3054,189.71094,-39.31738,-2.1969404,-0.34758365,-0.08043836,-0.39476416
-0.41367316,3.931429,8.034941,2.1594,-45.3718,-1.6104,189.91846,-38.8963,-2.3083806,-0.30469984,0.25422186,-0.22187997
-0.3824737,3.8082771,7.69878,3.0865998,-44.7496,-2.2814,189.96179,-38.606663,-2.581461,-0.28393242,0.43090314,-0.0686807
-0.36855742,3.9835775,7.433323,2.9768,-44.9204,-2.1838,189.72119,-38.373367,-2.9072533,-0.22834168,0.6010228,0.15661332
-0.2917185,4.3646297,7.270592,3.3794,-45.017998,-2.5742,189.43362,-38.25635,-3.1165924,-0.13524637,0.63119966,0.3154416
0.048407767,4.7158294,7.2143283,2.2691998,-45.2742,-3.172,188.89203,-38.174435,-3.358673,0.033757467,0.4953704,0.43130282
0.49874213,5.054534,7.2869773,2.4766,-45.2864,-3.4648,188.34813,-38.243755,-3.4480839,0.21773314,0.32719928,0.4629952
0.9223662,5.3264256,7.306804,2.2691998,-45.2986,-3.5623999,187.89534,-38.49278,-3.3638306,0.4482898,0.104336716,0.4362324
1.2238111,5.536367,7.031995,2.6962,-44.7252,-3.1598,187.67445,-38.760006,-3.212972,0.6363624,-0.051793642,0.33211216
1.103727,5.783718,6.567969,1.4762,-45.3108,-3.0744,187.42892,-39.49128,-2.9001222,0.7052096,-0.09367821,0.19072051
0.84245974,5.9205613,6.062343,1.9886,-45.017998,-2.9645998,187.36569,-40.092964,-2.7518284,0.6492858,-0.0052792877,0.05735605
0.4973954,6.0416183,5.609689,1.6958,-44.7374,-2.6718,187.34291,-40.46203,-2.7290065,0.49547032,0.13248181,-0.059737556
0.15016134,6.1737485,5.5009775,1.708,-44.5178,-3.3428,187.30637,-40.90871,-2.8237607,0.3339774,0.23726818,-0.119641654
-0.18637364,6.386159,5.5497594,2.5986,-44.5788,-2.1715999,187.24138,-41.198124,-3.0471172,0.20131241,0.3748794,-0.1407255
-0.61762923,6.6625395,5.6118593,2.0983999,-44.7252,-2.6718,187.09554,-41.36708,-3.3921108,0.090297475,0.54859626,-0.13871038
-0.86520463,6.9290442,5.7091236,2.8913999,-44.700798,-2.9645998,186.86958,-41.473953,-3.822525,0.063834414,0.5975754,-0.10531929
-1.0132711,7.1647983,5.7393503,1.7933999,-44.700798,-3.5502,186.59169,-41.623875,-4.271954,0.10563572,0.5306267,-0.057522587
-1.1693431,7.4661684,5.6774006,2.2935998,-44.7984,-2.5742,186.1947,-42.26136,-4.8259478,0.19916405,0.29602316,0.014938553
-1.0544214,7.772327,5.5939775,2.9889998,-44.712997,-3.2452,185.92546,-43.448444,-5.1243453,0.26641253,-0.11491194,0.061253063
-0.8429086,8.138415,5.4708257,2.1959999,-44.6642,-3.2574,185.6585,-45.988625,-5.1858745,0.23543625,-0.4568499,0.035289623
-0.7627777,8.452879,5.602133,2.5742,-45.2742,-3.3672,185.66109,-47.873558,-4.894179,0.1089665,-0.6338976,-0.02396497
-0.4790648,8.757017,6.4256635,2.379,-45.176598,-3.0621998,186.2235,-47.986153,-4.4253964,-0.12555379,-0.6818775,-0.094311066
-0.3561375,8.77632,7.1947255,1.8909999,-44.7984,-3.843,186.54422,-47.88679,-4.2088585,-0.26183268,-0.576758,-0.12938419
-0.5649568,9.050382,7.750031,2.8792,-45.0546,-4.4286,186.96272,-47.634342,-3.9701385,-0.32778215,-0.3107452,-0.095809914
-0.022894554,8.640599,7.6176763,2.5742,-45.408398,-4.2455997,187.15791,-47.32999,-3.8739119,-0.42432484,-0.14970195,-0.02111715
0.70180035,8.1928835,8.098612,3.0744,-45.3596,-5.2093997,187.23563,-47.076797,-3.8149426,-0.55257654,-0.27735412,-0.03437366
1.386991,7.8745294,9.088839,2.4766,-45.3474,-6.283,187.49905,-46.41462,-3.623635,-0.599424,-0.32918108,-0.09471076
1.499294,7.5367227,9.918505,2.3668,-45.798798,-6.2952,187.77438,-45.897133,-3.4872646,-0.48482847,-0.3563103,-0.20377718
1.4750527,7.0268326,9.961451,3.3672,-45.798798,-6.9783998,188.00226,-45.610886,-3.4250183,-0.31322664,-0.40390715,-0.28538132
1.2855366,6.468235,9.747319,3.0621998,-45.725597,-7.1735997,188.4292,-45.31249,-3.3392665,-0.18246017,-0.5556575,-0.34383652
1.3644705,6.107833,9.586608,4.0626,-45.725597,-7.8445997,188.9724,-45.117805,-3.201851,-0.12770215,-0.67704785,-0.35111427
1.6334441,5.921609,9.651775,3.2574,-46.103798,-7.6615996,189.6009,-44.959564,-2.991491,-0.1452387,-0.78872895,-0.38457197
1.9154361,5.7773585,9.8924675,3.3672,-45.9818,-8.7352,190.32727,-44.780407,-2.7439013,-0.1759485,-0.8046001,-0.507661
1.7386394,5.5378633,9.902194,4.453,-45.994,-8.2472,190.85335,-44.646103,-2.623524,-0.18690677,-0.6783968,-0.6626089
0.8988731,4.9925838,9.057265,4.453,-46.177,-8.3448,191.91432,-44.354183,-2.6729226,-0.23298813,-0.2737069,-0.86953366
0.36429274,4.758027,8.441282,5.8438,-46.347797,-9.3208,192.39873,-43.31168,-2.5166526,-0.30494964,-0.0688972,-0.89722914
-0.28094462,4.539556,7.7382846,5.5754,-45.75,-9.698999,193.00836,-42.292374,-2.7727482,-0.43573275,0.1729508,-0.84526896
-0.79652095,4.5679874,7.3368816,6.4537997,-46.189198,-10.1992,193.54561,-41.726368,-3.5703042,-0.5165542,0.32345214,-0.70559263
-0.96897835,4.680515,7.158214,7.6493998,-46.238,-10.5774,193.79527,-41.268383,-4.1615515,-0.46772492,0.30887997,-0.57051283
-0.8662521,4.8169093,7.0345387,7.0394,-46.4576,-10.8824,193.9888,-40.868164,-4.6503096,-0.35697645,0.18890524,-0.46034724
-0.82240826,4.919636,6.9978027,7.869,-45.8964,-11.0654,194.11755,-40.656883,-4.89776,-0.21380283,0.09677584,-0.381491
-0.6853402,5.0130844,6.7587566,8.064199,-46.030598,-11.8462,194.37447,-40.441216,-5.230443,0.04081872,-0.0041135144,-0.28896192
-0.57513213,5.0070987,6.3011646,7.9544,-46.0794,-11.0654,194.56609,-40.49744,-5.3737044,0.24404632,-0.058954824,-0.25192362
-0.63768065,5.021838,5.776236,9.0646,-46.030598,-11.163,194.69754,-40.627434,-5.439344,0.3516472,-0.09058059,-0.24522875
-0.74197805,5.0566287,5.2388873,8.3448,-46.347797,-11.5534,194.90558,-40.908268,-5.517733,0.38858557,-0.08834896,-0.2334711
-0.8072949,5.083414,4.7723923,9.0402,-46.4576,-10.7848,195.17326,-41.31766,-5.6163087,0.32979727,-0.08410222,-0.23250517
-0.9759365,5.304653,4.6710877,9.0157995,-46.9212,-11.0776,195.36731,-41.565506,-5.700241,0.2040936,-0.06698201,-0.23675191
-1.0604817,5.494394,4.8990602,8.1252,-46.8358,-10.492,195.55646,-41.72312,-5.7940717,0.09844123,-0.07617496,-0.23430379
-1.0998363,5.658322,5.372439,9.3452,-46.2746,-10.9678,195.81694,-41.7983,-5.907597,0.02379843,-0.092046134,-0.2394665
-1.1852046,5.763592,5.9828854,9.5282,-46.725998,-11.2727995,196.0247,-41.795605,-5.981095,0.0038137443,-0.12881796,-0.22409494
-1.2789526,5.8008513,6.4726496,9.1133995,-46.969997,-10.6018,196.16751,-41.785286,-6.01226,0.030176876,-0.12946746,-0.17619832
-1.4386908,5.8747725,6.986879,9.1256,-46.8968,-10.7848,196.34732,-41.795086,-6.0287437,0.08090467,-0.09316194,-0.08182064
-1.5578023,6.153996,7.338602,9.6136,-46.957798,-10.7848,196.44286,-41.85724,-6.016386,0.15328254,-0.008393568,0.059870787
-1.4829835,6.353613,7.251588,8.7108,-47.0798,-10.6018,196.4028,-41.989563,-5.98093,0.17997874,0.049611982,0.16688877
-1.43899,6.9099655,7.061773,8.8938,-47.5434,-11.102,196.25122,-42.151848,-5.9144607,0.102904476,0.05723947,0.25898486
-1.3489082,7.400253,7.389778,8.5034,-47.458,-10.711599,196.05862,-42.2519,-5.7946315,-0.033491004,-0.06969659,0.27792037
-1.2373533,7.740604,8.229619,8.1984,-47.6898,-11.4924,195.92949,-42.2312,-5.5866857,-0.14360662,-0.22511083,0.24298047
-1.2470798,7.807267,9.192014,7.9788,-48.1534,-11.6022,195.9022,-42.112774,-5.3073173,-0.16620597,-0.22594352,0.22347875
-1.388637,7.804798,9.712603,7.4908,-47.7142,-11.3948,195.87334,-41.97298,-5.047387,-0.14192457,-0.04060222,0.27453962
-1.6279075,7.7060375,9.879,7.4663997,-48.434,-11.5046,195.65497,-41.876774,-4.8999906,-0.08266998,0.3334778,0.42154363
-1.9114708,7.8389907,9.119964,6.7832,-48.128998,-11.7973995,195.3208,-41.85763,-4.8971443,-0.043649886,0.85825896,0.63416404
-1.4505122,7.930344,7.9896007,6.0512,-48.6536,-11.224,194.42033,-41.88423,-5.0697412,-0.24569505,0.89949405,0.9221101
-0.6151602,8.4765215,8.58239,5.5632,-48.434,-11.6144,193.32173,-41.796993,-5.1415153,-0.40369067,0.58596766,1.0061957
0.007556699,8.831462,9.7363205,4.758,-48.7756,-12.2,192.07147,-41.459885,-4.846615,-0.3987944,0.030476646,0.8566602
-0.1126023,8.591293,11.229928,5.0629997,-48.6902,-12.4928,191.70763,-41.2685,-4.525529,-0.21065524,-0.35596055,0.63344795
-0.44853872,7.5094886,11.347842,3.6355999,-49.3246,-11.6388,191.46211,-41.141003,-3.7734356,0.22619334,-0.38478848,0.40109265
-0.8809166,6.3566804,10.105776,3.6111999,-49.8614,-11.5534,191.40102,-41.37726,-3.3389552,0.44079554,-0.15782906,0.3873698
-1.0940753,5.835268,9.030255,3.1232,-49.5442,-11.9316,191.25545,-41.623257,-3.1299024,0.41253388,0.03638878,0.50148237
-0.93112,5.6931124,8.234333,2.5254,-49.4832,-11.834,190.74898,-41.712643,-2.9133391,0.21195425,0.19783174,0.6606937
-0.47322893,5.9706903,8.095769,2.0983999,-50.2884,-11.663199,190.19327,-41.777874,-2.6910193,0.05287615,0.21308671,0.66502374
0.1189619,5.988946,8.23149,1.1223999,-49.5198,-11.346,189.67111,-41.807285,-2.4502876,-0.017986218,0.16387442,0.5326418
0.7094319,5.439851,8.291046,0.61,-50.1054,-11.8462,189.28546,-41.111732,-1.7617201,-0.022599349,0.03065984,0.28353274
0.7484125,4.9924345,8.294936,1.0126,-49.7882,-11.4558,189.08821,-38.89268,-0.14542662,-0.016071018,0.0014488897,0.1447724
0.4115034,4.4905496,8.134226,0.5978,-50.3738,-11.955999,188.95906,-38.242985,0.18556587,0.02243281,0.10378713,0.1023882
0.16168344,4.238186,7.608249,0.2928,-50.398197,-12.248799,188.73811,-38.208088,0.15272662,0.08383576,0.34458596,0.19781508
0.12389994,4.2922053,6.905476,0.9882,-50.5202,-11.663199,188.51718,-38.25159,0.06254021,0.11587787,0.58593434,0.29715562
0.18218379,4.448202,6.2319574,0.305,-50.227398,-12.248799,187.99538,-38.348072,-0.17801997,0.15020157,0.8209709,0.3847385
0.21802199,4.589535,5.510704,0.366,-50.8862,-11.3826,187.3008,-38.47991,-0.5245242,0.16039376,0.91225094,0.39686257
0.0966659,4.854543,4.8543186,-0.3294,-50.861797,-12.0658,186.8013,-38.57801,-0.78879654,0.12931757,0.9227263,0.38074157
-0.07930793,5.196091,4.493468,-0.732,-51.057,-11.8706,186.05598,-38.711777,-1.196786,0.091679744,0.85837555,0.35391214
-0.20941783,5.5548472,4.4339867,0.0732,-50.9106,-11.5778,185.17093,-38.841152,-1.6822767,0.04528197,0.65891176,0.2628486
-0.39983168,5.696105,4.433014,-0.52459997,-50.849598,-11.5778,184.687,-38.90474,-1.9632757,0.02584686,0.4400128,0.1430737
-0.6063316,5.7443633,4.6017303,0.060999997,-51.166798,-11.3948,184.39763,-38.94944,-2.1551461,0.022665964,0.19536696,0.05027814
-0.6282535,5.6443305,4.94455,-0.6344,-50.8984,-10.6994,184.30843,-38.973553,-2.2211661,0.025180705,0.005212672,-7.4942573E-4
-0.669329,5.510854,5.3291187,-0.1464,-51.423,-12.6636,184.29176,-39.00623,-2.2385216,0.04844621,-0.07107887,-0.008210375
-0.66700965,5.5136223,5.732841,-0.7442,-51.4962,-11.7852,184.32889,-39.055683,-2.196254,0.09291214,-0.09707561,0.023298813
-0.43911156,5.5077114,5.9439797,-0.7564,-51.5816,-11.7852,184.34476,-39.15263,-2.1261594,0.15901148,0.007727412,0.08253675
0.11873744,5.7273045,5.8937016,0.23179999,-51.8866,-11.7973995,184.25406,-39.302483,-2.1083124,0.18380915,0.21521841,0.12888457
0.46088383,5.9510126,5.801824,-0.7808,-52.1428,-12.187799,184.05241,-39.469906,-2.1826298,0.15912805,0.3399062,0.109133035
0.4651485,6.344859,5.5965962,-0.1586,-51.7646,-12.480599,183.78384,-39.611286,-2.3655627,0.049245596,0.42290926,0.05161045
0.1503858,6.724415,5.659444,-0.183,-52.2404,-12.870999,183.5238,-39.667526,-2.6022322,-0.07344372,0.32849827,0.027545558
0.0036661213,6.919916,5.905972,-0.5978,-52.6186,-12.9808,183.39955,-39.640438,-2.7247856,-0.20079613,0.1294175,0.019418454
-0.15195699,7.1241717,6.6265516,-0.109799996,-52.8504,-12.8832,183.35414,-39.856045,-2.6940262,-0.29534036,-0.20479307,0.0035472817
-0.15509938,7.1356187,7.3335896,-1.1101999,-53.0212,-13.481,183.49469,-39.860798,-2.4772046,-0.31039548,-0.48877546,-0.008843224
-0.15195699,7.1851487,8.138639,0.1952,-53.106598,-14.457,183.79575,-39.588753,-2.1282778,-0.2841156,-0.68419236,-0.020167878
-0.2359785,7.3761616,8.470536,-0.8174,-53.3994,-14.0666,184.17146,-39.33535,-1.6985788,-0.29219276,-0.598941,-0.032275267
-0.25520694,7.561263,8.555904,-0.23179999,-53.68,-14.8596,184.39224,-39.161278,-1.4549083,-0.37411332,-0.39299884,-0.06533327
-0.29755437,7.822605,8.645537,0.56119996,-53.863,-15.5428,184.63606,-38.82733,-1.2455106,-0.52581376,-0.107850686,-0.10486964
-0.18846856,8.098762,8.55987,-0.43919998,-54.119198,-16.226,184.7116,-38.52256,-1.2502549,-0.70699155,0.2593013,-0.13356432
0.3250877,8.055666,8.709433,0.6344,-54.7658,-17.409399,184.64944,-37.643566,-1.6154968,-1.0842525,0.38746974,-0.2780869
0.23059155,8.044443,9.741708,0.3416,-54.7292,-18.0926,184.6482,-37.02561,-1.8867,-1.2597346,0.3763283,-0.45694983
-0.26238954,7.5945573,10.887183,1.0248,-55.143997,-19.7518,184.78001,-35.95282,-2.3763847,-1.2304238,0.31211084,-0.63842744
-0.6417957,6.9607673,11.536237,1.8177999,-55.4246,-20.642399,185.07312,-34.904415,-2.9044168,-1.0369054,0.23032351,-0.712504
-0.94324064,6.09878,11.702858,2.5132,-55.4124,-21.032799,185.33202,-34.30967,-3.2377152,-0.706009,0.12002469,-0.6819774
-1.0399065,5.5358434,11.527857,3.4282,-55.266,-22.4846,185.75632,-33.640316,-3.656825,-0.44440946,-0.053625572,-0.5956935
-1.0271125,5.1119947,11.327118,3.3062,-55.7418,-22.8872,186.20377,-33.237373,-3.8841317,-0.14510547,-0.3050329,-0.45670003
-0.9189245,4.8900075,10.96088,4.3798,-56.242,-23.0824,186.67645,-33.081158,-3.865194,0.06435069,-0.5268296,-0.35984093
-0.68137485,4.7317657,10.47149,3.8674,-56.6812,-22.6066,187.1892,-33.123943,-3.617221,0.22026454,-0.7198817,-0.29189298
-0.3422212,4.5716534,10.159795,3.6111999,-58.0598,-23.2288,187.74161,-33.283764,-3.2132044,0.3203212,-0.8298474,-0.25648677
-0.06382044,4.345551,9.681703,4.7214,-57.937798,-23.607,188.3116,-33.517315,-2.7465606,0.3766114,-0.7862475,-0.2824169
0.05117606,4.215067,8.908002,4.2822,-58.633198,-22.9482,188.87096,-33.402794,-2.2266743,0.34878272,-0.608134,-0.3317791
0.09771336,4.137929,8.165874,4.3554,-59.2432,-22.862799,189.36053,-32.52281,-1.5979784,0.22282925,-0.41101837,-0.38377258
-0.026710313,4.1714478,7.6056304,4.0382,-59.731197,-23.4606,189.80637,-32.65283,-1.533138,-0.020184532,-0.10248813,-0.44674098
-0.1293617,4.2078094,7.377658,4.9288,-60.121597,-23.18,190.04433,-32.622997,-1.6328974,-0.21921535,0.23052335,-0.47568548
-0.32606035,4.3188405,7.066187,5.124,-60.1704,-24.2414,190.26791,-32.421883,-2.0335357,-0.35073122,0.68507504,-0.4760852
-0.4635773,4.3775735,6.6753335,6.8198,-60.121597,-24.6318,190.31963,-32.128536,-2.7139215,-0.35880837,0.8701332,-0.47005647
-0.6262334,4.4777555,6.0620437,7.1004,-60.816998,-24.5464,190.28041,-31.92909,-3.2787461,-0.34317037,0.97870004,-0.4470741
-0.69446814,4.621333,5.589339,6.8686,-61.3904,-25.1442,190.16705,-31.652342,-4.1807766,-0.3048497,0.8958135,-0.40455666
-0.7563433,4.7176995,5.4940944,8.0764,-61.2196,-24.7538,190.12868,-31.568142,-4.4696255,-0.27507254,0.7762385,-0.39036754
-1.1972505,5.1149874,5.8830023,8.3692,-61.549,-26.1202,190.07137,-31.415413,-4.9963555,-0.07669123,0.25637022,-0.32809857
-1.3489082,5.179182,6.2481184,9.4672,-61.585598,-26.1202,190.30545,-31.265148,-5.7082095,0.115045175,-0.109249614,-0.29072723
-1.499294,5.1574845,6.6599956,9.4428,-62.146797,-26.522799,190.59644,-31.391031,-5.695899,0.38252354,-0.5064619,-0.22855818
-1.5202433,5.1244893,6.9978027,9.4306,-62.5616,-26.046999,190.98991,-31.689886,-5.428586,0.5145224,-0.66101015,-0.15516444
-1.3905075,5.170802,7.419257,9.894199,-63.159397,-25.864,191.39607,-32.0941,-5.0221972,0.5765082,-0.6376281,-0.07687443
-1.2115409,5.3020344,7.725191,9.5648,-64.1842,-26.473999,191.73299,-32.56041,-4.6078563,0.618576,-0.47456968,-0.005762251
-1.0162638,5.564424,7.8027782,9.7355995,-64.5746,-25.803,191.94951,-33.073036,-4.2816253,0.61113167,-0.24071553,0.026796132
-0.90874916,5.863325,7.7563906,10.0528,-64.3916,-25.8884,192.03407,-33.589634,-4.11439,0.56453407,-0.008460184,0.027961906
-0.8272715,6.112023,7.7171106,10.418799,-65.1968,-26.205599,192.01938,-33.92203,-4.1123147,0.49575344,0.19728215,0.00174866
-0.85802203,6.3532386,7.706486,10.5042,-65.331,-25.619999,191.92209,-34.368084,-4.263394,0.41231737,0.39849463,-0.052276608
-0.99052614,6.4970403,7.615282,10.2968,-65.7092,-25.925,191.76521,-34.75657,-4.5776114,0.3488327,0.50048316,-0.09008097
-1.2007669,6.602385,7.570017,11.1874,-65.7458,-25.6322,191.5799,-35.096073,-4.9883595,0.29011104,0.51377296,-0.10162213
-1.5114895,6.7299514,7.5416603,10.5652,-66.392395,-25.6444,191.45842,-35.30827,-5.271786,0.25305608,0.42642322,-0.09269563
-1.8177977,6.9103394,7.7461405,11.9682,-66.3314,-25.546799,191.31303,-35.599392,-5.6380606,0.21253714,0.22227967,-0.06381776
-2.032378,7.006182,8.190864,12.5416,-66.8316,-25.4614,191.2431,-35.853428,-5.8455653,0.1989642,0.03344104,-4.9961716E-5
-2.1452796,7.040973,8.872837,12.322,-67.2098,-25.7542,191.20589,-36.032635,-5.862339,0.218366,0.10317094,0.15754594
-1.9618238,7.053992,9.112257,13.115,-67.3806,-26.242199,191.02472,-36.2436,-5.8722425,0.26283193,0.38360605,0.31269372
-1.8493712,7.319823,8.2825165,13.493199,-67.8686,-25.6688,190.36624,-36.62792,-6.106092,0.3036673,0.98581123,0.4701897
-1.7926586,7.328128,6.781726,13.2858,-68.198,-25.192999,189.48016,-37.19057,-6.655074,0.097358726,1.092646,0.5463813
-1.3211504,7.6491003,6.754118,13.3834,-68.076,-24.607399,188.81418,-37.849796,-7.079529,-0.16715524,0.9522203,0.54773027
-1.0744728,7.882535,7.4198556,14.4936,-67.9052,-25.7664,187.70265,-37.973442,-7.5062385,-0.46106336,0.5443995,0.40169218
-1.2945149,7.64925,9.055843,14.3716,-68.3322,-25.192999,187.34698,-37.76131,-7.599491,-0.5109418,0.11567802,0.18302642
-1.8944869,6.5446253,10.221221,15.689199,-68.1736,-26.6448,187.09082,-37.253258,-7.588974,-0.2160178,0.016937021,0.07139529
-2.165331,5.560159,9.554811,15.0914,-68.0272,-26.7424,187.02502,-37.084373,-7.566904,0.013473009,0.0522433,0.11417917
-2.4723125,5.240309,8.658181,16.909199,-67.588,-26.827799,186.90517,-37.119514,-7.5403595,0.12443798,0.010658499,0.27172512
-2.420463,5.2901382,8.130634,17.7022,-67.5148,-26.1446,186.71281,-37.011208,-7.7231607,0.10865007,-0.10150555,0.3882858
-1.9345897,5.7936687,8.13273,18.605,-67.3928,-26.3398,186.47655,-37.035164,-7.437115,-0.011691041,-0.4077542,0.43078655
-1.2888287,5.874623,8.642619,17.5924,-67.71,-26.242199,186.42426,-37.03395,-7.1047306,-0.029377488,-0.4785333,0.36563647
-0.6605004,5.4940195,8.622044,19.1784,-68.258995,-26.2544,186.45085,-37.016388,-6.6032357,0.03663859,-0.42515755,0.20059629
-0.4973954,5.103615,7.9844384,18.6904,-67.7222,-25.851799,186.54573,-36.997265,-6.1905136,0.0015321593,-0.36347148,0.031509187
-0.5810428,4.806734,7.6333137,20.5814,-67.8686,-25.3638,186.7114,-36.962055,-5.9344215,-0.19295214,-0.19923066,-0.09387806
-0.7461679,4.6425066,7.627403,22.4846,-67.7344,-26.046999,186.86829,-36.768417,-5.862596,-0.38860223,0.048812594,-0.15041807
-0.9825953,4.523395,7.7437463,22.8872,-67.5758,-25.0588,186.90236,-36.3988,-6.038021,-0.53857064,0.457183,-0.1550312
-1.1629834,4.4914474,7.596428,24.997799,-67.1976,-24.765999,186.72823,-35.954823,-6.4866242,-0.52754575,0.8093631,-0.10560241
-1.3519758,4.549956,7.234978,24.7904,-67.478195,-24.961199,186.49979,-35.68494,-6.8986692,-0.40229172,0.9506715,-0.031542495
-1.428665,4.585794,6.466215,27.3646,-67.8564,-24.180399,185.88329,-35.35961,-7.776245,-0.1081338,0.82488453,0.10600211
-1.4401871,4.7298203,6.0895023,27.8648,-67.9784,-23.7046,185.40256,-35.348415,-8.286724,0.13436371,0.5629353,0.20767419
-1.4496891,4.8453407,5.7989063,29.8168,-68.6372,-21.0816,184.98041,-35.54189,-8.564234,0.33750802,0.315375,0.2776539
-1.3816788,5.0480247,5.266271,31.305199,-69.0764,-20.7034,184.65512,-35.926872,-8.598802,0.51538837,0.034823313,0.2939914
-1.3542951,5.405883,4.8057613,31.9396,-70.2964,-17.7022,184.43195,-36.584774,-8.366991,0.51821953,-0.22108059,0.21996477
-1.3090298,5.5506573,4.9097595,32.6838,-71.2236,-15.8722,184.4194,-37.02606,-8.104505,0.39716232,-0.3117278,0.114212476
-1.3246669,5.6058736,5.286846,34.355198,-71.7726,-14.2252,184.47752,-37.24948,-7.9283338,0.26857752,-0.34028924,0.020017993
-1.5298948,5.721768,6.1827264,33.8306,-72.443596,-13.176,184.64255,-37.462658,-7.6969237,0.1490691,-0.2986878,-0.075642034
-1.691728,5.7229652,6.8990417,35.8558,-73.8344,-10.9556,184.8489,-37.5664,-7.5390644,0.122972436,-0.23979957,-0.1181428
-1.889923,5.820828,7.630246,35.3312,-74.4078,-9.7112,185.05008,-37.654648,-7.4544396,0.17751397,-0.1774307,-0.11827603
-1.8751837,5.815441,8.153529,35.563,-75.8596,-7.2102,185.20999,-37.800724,-7.4072714,0.27543893,-0.12565371,-0.0633348
-1.7239001,5.9450274,8.290821,36.148598,-76.006,-5.6486,185.27979,-37.95124,-7.374198,0.3733306,-0.042300917,0.010741768
-1.5625907,6.279542,7.807791,35.4776,-77.348,-1.9886,185.28947,-38.373966,-7.3356085,0.42061102,0.082020484,0.06556642
-1.5183728,6.5883193,7.1767693,34.6114,-78.7632,0.3172,185.1906,-38.7424,-7.3713636,0.3620559,0.16380781,0.051843606
-1.5486745,6.756138,6.735338,35.563,-79.7148,1.6592,185.06345,-39.11107,-7.470153,0.23983288,0.15681317,0.013206546
-1.6412252,6.9478984,6.7088523,34.4528,-80.032,3.2086,184.93094,-39.637882,-7.665824,0.13178235,0.1049196,-0.012740238
-1.6802058,7.1234984,6.9051023,33.7086,-80.849396,5.1484,184.87689,-39.876236,-7.768189,0.047563553,0.054941233,-0.02158346
-1.598803,7.2456775,6.9628625,31.890799,-81.3618,7.0759997,184.84816,-39.991932,-7.837301,-0.023615237,0.033657543,-0.009476072
-1.4446763,7.474548,7.1679406,30.6708,-81.776596,8.6254,184.82806,-39.99092,-7.8667245,-0.18460853,0.06789797,0.053275842
-1.0786626,7.658752,7.084892,30.451199,-82.105995,9.2964,184.75938,-39.866573,-7.8826237,-0.34088877,0.15741271,0.10222167
-0.57034373,7.5907416,7.347805,29.524,-82.6428,9.8698,184.6169,-39.65137,-7.880127,-0.53603923,-0.04792994,0.07672454
-0.4731541,7.5602903,8.669779,27.8282,-82.6916,10.3456,184.61436,-39.346107,-7.8163505,-0.6198417,-0.42482445,-0.032874808
-0.77856445,7.403395,9.546431,26.473999,-83.9238,10.223599,184.83614,-38.797863,-7.5650907,-0.5249644,-0.62054116,-0.13173239
-1.2751368,6.914679,10.121114,26.2666,-84.1922,10.4066,185.26154,-38.30347,-7.21636,-0.35319602,-0.7181164,-0.18016194
-1.2538884,6.1031194,10.3623295,25.4736,-84.0214,10.809199,185.59396,-38.04588,-6.960519,-0.22173008,-0.6915201,-0.12335547
-1.1929858,5.505467,10.611775,24.6806,-83.813995,10.516399,186.0492,-37.773895,-6.561936,-0.115861215,-0.5238319,0.007144525
-0.8159739,5.2311063,10.434455,23.4728,-84.0946,11.285,186.29242,-37.636963,-6.2135696,-0.009959035,-0.2339041,0.20441003
0.06516718,5.284302,9.727267,23.3752,-83.8994,11.5778,186.27232,-37.624203,-6.034871,0.051410604,-0.06719851,0.3495155
0.5887492,5.5882163,9.35871,20.8986,-83.5212,12.4684,186.08128,-37.670887,-5.7878175,0.052326567,-0.11830934,0.3581589
0.8627356,5.9581203,9.168072,21.1792,-83.7774,12.4562,185.91147,-37.722984,-5.5055404,0.06873067,-0.22221304,0.23535298
0.64112234,6.0056305,8.674941,19.4834,-83.8384,12.6514,185.91269,-37.80264,-5.122388,0.12891787,-0.32058766,0.011974158
0.22625206,5.9041014,8.087239,18.117,-82.9844,13.1516,186.02841,-37.83713,-4.8785467,0.1629418,-0.34851626,-0.10060624
-0.31423897,5.7385273,7.2023573,17.8364,-82.4354,13.7494,186.38004,-37.979237,-4.5833216,0.15364893,-0.38288993,-0.15016825
-0.44936174,5.717279,6.687454,16.5432,-82.398796,13.847,186.58293,-38.048466,-4.4637413,0.1025714,-0.39664605,-0.15559743
-0.34446576,5.8020487,6.253505,16.2992,-81.1056,14.945,186.89482,-38.111122,-4.27803,-0.0071278713,-0.39268243,-0.16820444
-0.2021604,5.943606,6.2902412,16.286999,-81.2642,15.433,187.2166,-38.087147,-4.1017537,-0.09810815,-0.37762728,-0.2085735
-0.108936176,5.7843165,6.5865984,16.4212,-80.4956,14.6644,187.55922,-37.990337,-3.9526923,-0.0944443,-0.40017667,-0.251857
-0.35037646,5.492673,7.2586956,15.5306,-80.1662,14.871799,187.95508,-37.916775,-3.7996721,0.12075746,-0.5203346,-0.24492897
-0.5734113,5.1001735,7.330447,15.86,-79.422,15.1768,188.249,-37.98126,-3.6461968,0.5171204,-0.68908864,-0.17907944
-0.6792799,4.7777042,6.707057,15.3963995,-78.372795,16.958,188.72736,-38.351353,-3.295906,0.82893145,-0.8135932,-0.079772204
-0.7214029,4.751293,5.6031055,15.8234,-77.884796,17.446,189.21416,-39.03244,-2.790199,0.97167206,-0.94522566,0.0494621
-0.68982935,5.0064254,5.1166334,14.945,-77.1772,17.958399,189.68979,-39.83301,-2.146169,0.89471436,-0.97367054,0.12946746
-0.5005378,5.2888665,4.986299,15.0792,-76.2256,19.044199,189.98822,-40.331882,-1.6791927,0.7249611,-0.9154485,0.14870271
-0.43155485,5.8028717,5.2376156,14.6278,-75.249596,19.459,190.39745,-40.939854,-1.0201309,0.5362724,-0.78896207,0.109282926
-0.3274819,6.3661823,5.7686048,14.6522,-74.4932,20.3496,190.75629,-41.370895,-0.49953884,0.34468588,-0.54245096,-0.016454058
-0.33840546,6.63553,6.2130284,15.4939995,-73.4318,21.0572,191.07185,-41.667713,-0.17656621,0.28584763,-0.37388018,-0.1254039
-0.41629183,6.7000985,6.618247,15.2134,-72.895,21.264599,191.35666,-41.91577,-0.053283162,0.30408365,-0.19570003,-0.22940753
-0.5113865,6.693814,6.749928,14.835199,-72.5046,20.7888,191.44353,-42.001865,-0.05094809,0.3465178,-0.087433,-0.26661235
-0.79173255,6.7212725,6.7149878,15.2866,-71.1626,22.081999,191.77795,-42.521347,-0.24715158,0.41441578,0.046547662,-0.22709265
-0.9239374,6.961815,6.689175,16.226,-69.9304,22.692,191.85251,-42.77249,-0.3753805,0.43786445,0.034440275,-0.11562806
-0.9255086,7.1968956,6.7604027,15.9698,-68.9544,22.9116,191.9103,-43.247623,-0.62594163,0.45113763,-0.020534264,-0.02797856
-0.8339304,7.5064955,6.777162,16.4944,-68.1736,23.8144,191.93007,-43.534073,-0.6566952,0.4513375,-0.086567,0.038004212
-0.5683985,7.8861265,6.7906294,15.786799,-68.3566,24.1926,191.94925,-43.798725,-0.6107739,0.4051562,-0.14157484,0.07157848
-0.35232174,8.262091,6.8991165,16.6164,-67.783195,24.302399,191.97423,-44.035072,-0.52954054,0.3068482,-0.123188935,0.044282734
-0.26545712,8.505102,7.153725,16.3846,-66.1362,25.4126,192.02061,-44.316498,-0.42604676,0.18537462,-0.0709956,-0.029927067
-0.37813422,8.484752,7.645958,16.6896,-65.7458,25.619999,192.08319,-44.47687,-0.4101047,0.074476264,-0.0010325421,-0.116344176
-0.588824,8.381577,8.027609,16.1162,-65.2456,25.5346,192.12848,-44.519493,-0.4639273,-0.0076774503,0.13208212,-0.1667056
-1.0752211,8.207249,8.504579,17.0434,-64.5624,25.8396,192.13498,-44.513336,-0.65995765,-0.05305934,0.4209774,-0.11491194
-1.2036849,8.036213,8.748713,17.177599,-63.549797,26.352,191.93048,-44.471855,-1.0002556,-0.016970329,0.7723581,0.068097815
-1.1517607,8.0829,8.612916,16.7018,-63.1228,26.4618,191.61688,-44.46321,-1.2877277,0.06699866,1.0357397,0.22339548
-1.0111012,8.196699,7.3694277,16.323599,-62.537197,26.2788,190.84734,-44.550293,-1.7939576,0.14990179,1.2036942,0.390634
-0.5343559,8.13228,6.535647,15.0548,-61.7198,27.6574,189.92354,-44.698963,-2.223505,0.030243492,0.7439466,0.49751875
-0.42280105,8.362797,7.2622123,15.9942,-60.743797,28.365,189.44217,-44.73493,-2.3047419,-0.050644524,0.14955206,0.52704614
-0.44187984,8.395942,8.396765,14.9938,-60.756,27.486599,189.06068,-44.71934,-2.055216,0.0011824273,-0.41426587,0.51363975
-0.51086277,8.104074,9.367838,14.4204,-60.2192,27.876999,189.02786,-44.726067,-1.676759,0.15936121,-0.6773143,0.4751692
-0.4599112,7.336657,9.4062195,14.8474,-59.3896,28.194199,189.13313,-44.861187,-0.9986564,0.36532006,-0.50762767,0.43848065
-0.4046949,6.6076226,8.510489,15.262199,-59.17,28.584599,189.15352,-45.15419,-0.452589,0.39856124,-0.15949444,0.43301818
-0.47061026,6.1571383,7.3011928,14.6156,-57.8158,29.401999,188.93068,-45.306637,-0.20481433,0.21681719,0.1949173,0.47518587
-0.34768298,6.2157216,6.8674684,14.639999,-57.010597,29.6094,188.65814,-45.41381,-0.09581564,-0.042933766,0.32420155,0.5135898
-0.18974048,6.409727,6.838663,13.1272,-57.4254,29.6948,188.16478,-45.40164,0.027362378,-0.18755628,0.27374023,0.49312213
0.0032920274,6.743868,7.030723,13.066199,-56.7422,29.316599,187.60382,-45.16445,0.23069729,-0.27988553,0.027462289,0.40257484
0.29822776,6.739528,7.402572,12.688,-56.0224,29.828999,187.43951,-45.0026,0.38396323,-0.2757054,-0.12891787,0.297089
0.5972785,6.493748,7.475296,12.809999,-55.4734,29.8412,187.3428,-44.76281,0.63865703,-0.21015562,-0.14548852,0.14049233
0.49447748,6.058004,6.8388877,12.443999,-54.778,30.0486,187.34698,-44.559372,0.81732893,-0.20747435,-0.023148928,-0.0351897
0.2315642,5.7079263,6.378602,12.870999,-54.1558,29.5728,187.3799,-44.38133,0.82934624,-0.29220942,0.110698506,-0.107850686
-0.29545945,5.380669,6.1488338,12.4928,-53.4482,29.8778,187.34798,-44.00467,0.61458004,-0.43571612,0.34660107,-0.10606872
-0.6369325,5.302633,6.032341,13.005199,-53.191998,29.3044,187.16647,-43.614037,0.30633032,-0.47455302,0.5969259,-0.009825804
-0.82809454,5.352986,5.8393083,12.139,-52.399,29.8046,186.81638,-43.210903,-0.079199694,-0.42920443,0.68968815,0.08115448
-0.8218097,5.433865,5.532177,11.663199,-51.9354,29.1336,186.51215,-42.971878,-0.3396071,-0.34368664,0.66993666,0.16858748
-0.80549926,5.530456,5.319542,10.9678,-51.874397,29.036,186.02441,-42.69618,-0.66280955,-0.22069755,0.5305601,0.24334686
-0.7368156,5.60954,5.1764884,11.3948,-51.1302,29.353199,185.71443,-42.572796,-0.80881727,-0.14022587,0.38352278,0.28006873
-0.6925228,5.705383,5.274576,10.736,-50.1908,29.2678,185.32622,-42.474926,-0.8867273,-0.032058768,0.12900114,0.31687385
-0.52395606,5.772046,5.571008,10.0528,-49.6662,29.670399,185.06053,-42.467453,-0.78532994,0.081304364,-0.11194755,0.33469352
-0.53592706,5.870283,5.9073935,9.333,-47.7142,30.097399,184.91847,-42.54882,-0.52685255,0.1737835,-0.24729383,0.333661
-0.55328506,5.9122567,6.1770406,9.5648,-47.1408,30.6952,184.85138,-42.70373,-0.1861424,0.23030685,-0.27488935,0.34282064
-0.47839144,5.9700913,6.3747115,8.7718,-46.8724,29.828999,184.7872,-42.91005,0.17133158,0.27110893,-0.20935623,0.35601053
-0.41584292,6.2379427,6.4916534,9.0402,-45.1156,30.744,184.66786,-43.14118,0.48782757,0.27160853,-0.05027814,0.36695215
-0.2881272,6.429554,6.5436525,9.076799,-44.2982,31.0612,184.46803,-43.369812,0.7293673,0.26354805,0.040069293,0.3665025
-0.06628946,6.736161,6.5354223,8.54,-42.8098,31.183199,184.21362,-43.589523,0.91127855,0.25245655,0.073760144,0.35452834
0.23148938,7.033641,6.60665,8.979199,-41.906998,31.0124,184.04047,-43.73165,1.0201193,0.24303043,0.049745213,0.33106297
0.4523545,7.3344126,6.7727475,7.6372,-40.577198,32.1104,183.7543,-44.01315,1.2435083,0.22286256,-0.025630359,0.24800995
0.52896893,7.5329065,6.7790327,8.1862,-39.1376,32.0494,183.6242,-44.20728,1.4090561,0.20306106,-0.09362825,0.18151091
0.6275053,7.632416,6.790405,9.0157995,-38.4178,31.476,183.57663,-44.37937,1.5798478,0.1381608,-0.18290983,0.12886791
0.8088661,7.6250834,6.9903955,8.2838,-36.8318,31.903,183.61244,-44.495792,1.7728395,0.051843606,-0.28078485,0.09164644
1.0986392,7.5132294,7.313538,8.601,-36.5512,31.8176,183.7307,-44.541103,2.001912,-0.019268569,-0.3622391,0.07700766
1.389834,7.354838,7.623587,8.6376,-35.6362,32.3178,183.90033,-44.528362,2.271216,-0.06536657,-0.37131545,0.109382845
1.6382325,7.216498,7.8974237,9.1133995,-33.8794,31.4882,183.99829,-44.494736,2.4642603,-0.071511865,-0.27575535,0.19221938
1.905186,7.3466077,7.867347,8.723,-33.6354,31.4882,183.99849,-44.422108,2.853346,0.008626723,-0.007860643,0.38740313
2.6865187,7.542259,6.792051,9.4916,-32.0128,31.3296,183.72778,-44.43426,3.1450627,-0.011291347,0.0842188,0.49007446
3.0779707,8.098612,6.367903,10.0162,-31.3906,30.9636,183.46184,-44.449993,3.630154,-0.27901953,-0.23641883,0.34327027
2.8576293,8.472033,7.0049853,9.3574,-30.5122,29.706999,183.49937,-44.16951,4.017677,-0.57895637,-0.5772077,0.020067954
2.1731122,8.214656,8.284536,10.1748,-30.024199,29.8168,183.90576,-43.673553,4.385763,-0.7574862,-0.7213972,-0.29913744
1.7793407,7.3353853,9.317485,10.8946,-29.7192,28.267399,184.33502,-43.273575,4.565784,-0.7332881,-0.52854496,-0.42131048
1.8131589,6.5633297,9.626786,10.9312,-28.816399,28.389399,184.95609,-42.67658,4.685742,-0.6627255,-0.4029079,-0.4076043
1.8974048,6.0910735,9.8677025,12.3586,-28.3162,26.7424,185.83995,-41.973114,4.718175,-0.5029479,-0.18044506,-0.26354805
2.0536265,5.945626,9.391854,12.187799,-27.5354,26.473999,186.0617,-41.575306,4.6839533,-0.31595787,-0.017986218,-0.14129172
2.1016603,6.150405,8.598701,12.2366,-26.327599,25.7176,186.49942,-41.323387,4.643528,-0.19756527,-0.06466711,-0.097342074
2.2304235,6.3389482,8.085893,13.1516,-25.9616,25.2418,186.96854,-41.15047,4.6994495,-0.13872702,-0.22346209,-0.15714625
2.2239141,6.262259,7.8352494,12.7856,-25.2174,24.583,187.1081,-41.042812,4.842275,-0.10150555,-0.29224274,-0.26879403
2.0759225,6.0522428,7.39726,13.908,-24.6684,23.911999,187.75948,-40.807476,5.550686,-0.08180398,-0.31845596,-0.40613878
1.7550995,5.8808327,6.8990417,13.6396,-23.985199,23.6314,188.55849,-40.736057,5.7662992,-0.120058,-0.32543394,-0.53818756
1.3269114,5.6361003,6.4453406,14.4936,-22.6798,22.4968,189.10922,-40.668873,5.662208,-0.23926665,-0.3158746,-0.66928715
0.952593,5.4758387,6.506692,14.835199,-21.899,21.7404,190.101,-40.50141,5.4880075,-0.40397376,-0.28734648,-0.771692
0.876203,5.357625,6.7905545,15.372,-21.045,20.7766,191.15657,-40.22162,5.247848,-0.44509226,-0.23893358,-0.8137264
0.6904279,5.2531776,7.00289,16.5798,-20.7278,20.6912,192.2229,-39.908535,4.942878,-0.38335624,-0.14835298,-0.8560607
0.46986207,5.0935144,7.0836196,16.7384,-19.6176,19.642,193.4809,-39.571377,4.430712,-0.21954843,-0.034956545,-0.8493325
0.3677344,4.9875712,6.6828904,16.897,-18.2512,18.605,194.04434,-39.454872,3.9743106,-0.036921706,0.061985835,-0.83884054
-0.32299277,5.1097503,5.3658547,18.0926,-15.847799,17.7876,195.94754,-39.58697,2.9700198,0.059437785,0.015288285,-0.8040505
-0.5506664,5.274576,5.196091,18.3,-15.7624,17.3972,196.94159,-39.67529,2.5128214,-0.0015987749,-0.045548428,-0.778237
-0.76053315,5.5401077,5.366603,18.580599,-13.7372,16.958,197.30061,-39.693882,2.2426283,-0.106901415,-0.14612137,-0.7458118
-0.9802011,5.697452,6.052018,18.617199,-13.0784,15.8966,198.54057,-39.61489,1.8134857,-0.19248584,-0.23095635,-0.66051054
-0.9899276,5.731719,6.856844,19.032,-12.5416,15.7258,199.43,-39.526035,1.6678184,-0.19246918,-0.2578524,-0.54583174
-0.87545484,5.8916817,7.5394907,18.8978,-11.0776,14.969399,199.91571,-39.363464,1.4071568,-0.12074081,-0.20820712,-0.4053727
-0.7872434,6.106037,7.795296,19.629799,-10.4676,14.212999,200.6929,-39.256927,1.1146717,-0.015088438,-0.10753427,-0.26617935
-0.77602065,6.3078237,7.761478,18.5562,-10.0162,13.542,201.4777,-39.24528,0.9672471,0.07985547,-0.0057289433,-0.13592917
-0.739958,6.53228,7.5498157,19.788399,-9.0524,13.847,201.53307,-39.297337,0.8924049,0.15085107,0.07086237,-3.1642418E-4
-0.6345383,6.8141975,7.2777,19.2516,-7.6615996,12.1268,202.09656,-39.45326,0.7978734,0.1959332,0.10330417,0.14826971
-0.60827684,7.1328506,7.043068,19.1906,-6.7344,11.2727995,202.60095,-39.730053,0.7102063,0.20131241,0.10055628,0.24937557
-0.5777508,7.4813566,6.8596873,20.008,-6.2464,11.4802,202.46089,-40.180786,0.5405654,0.1622923,0.07604173,0.33197895
-0.5053262,7.860164,6.8355207,19.5444,-5.5388,10.3334,202.91086,-40.733017,0.4650146,0.06691539,-0.05216003,0.39837804
-0.282441,8.021399,7.1536503,20.3618,-5.2581997,9.8454,202.7552,-40.83172,0.6036116,-0.008460184,-0.1910536,0.4231424
0.32725745,8.090681,8.112304,19.703,-4.453,8.8938,203.28862,-40.81171,1.1119955,-0.08640046,-0.38508824,0.41396612
0.5081693,8.096966,8.787618,19.8372,-3.6843998,8.1252,204.02827,-40.76474,1.4268603,-0.101488896,-0.42124388,0.35747606
0.28027123,7.909096,9.309105,20.5814,-2.562,6.8929996,204.83597,-40.68129,1.8790408,-0.09224598,-0.25403866,0.2640643
-0.32179567,7.8071175,9.083976,20.6912,-2.4766,6.7953997,204.78192,-40.60027,2.1584873,-0.09825804,0.14045903,0.24800995
-0.6667104,7.483676,8.343493,21.1304,-1.6104,4.3798,205.45634,-40.532463,2.169204,-0.22601014,0.3991941,0.3124106
-0.6368576,7.3022404,8.276156,20.435,-1.6592,4.2822,205.8979,-40.311455,2.0731115,-0.4090532,0.43340123,0.39769524
-0.49717095,7.2938604,8.863934,20.9474,-1.2078,3.8063998,205.56837,-40.06352,2.0314138,-0.52053446,0.27803695,0.47283766
-0.19228433,7.267674,9.972823,21.459799,-0.96379995,3.0256,206.00294,-39.604935,2.1084642,-0.48058173,0.06393434,0.5235821
0.038980596,7.040449,10.970531,21.777,-0.5978,1.3786,205.7506,-39.32507,2.2683287,-0.25838533,0.0016653904,0.5432504
0.0712275,6.7041388,11.036147,20.7156,0.109799996,0.52459997,206.41997,-39.141426,2.4493754,0.10198852,0.18001206,0.5518771
-0.12479776,6.235025,9.657237,21.5208,0.0976,-0.2562,206.89873,-39.15006,2.6290946,0.3904175,0.49467093,0.59073067
-0.3179799,6.0713964,8.168866,21.423199,0.13419999,-1.2322,206.47858,-39.329094,2.6365936,0.4640444,0.6570465,0.6487695
-0.3653402,6.1327477,6.478261,21.5452,0.52459997,-2.2935998,206.36043,-39.77011,2.5283198,0.3098126,0.6279854,0.74171495
-0.20111294,6.301389,6.0398226,20.6302,0.2562,-3.0744,206.50089,-39.9649,2.54101,0.108083844,0.38035855,0.7416483
-0.012719196,6.5495634,6.2738557,21.5574,0.6832,-4.0382,206.05199,-40.005768,2.6533923,-0.0437165,0.017053599,0.68943834
0.568174,6.5511346,7.7077584,21.069399,0.793,-4.9165998,206.48582,-39.905792,3.206735,-0.16027717,-0.48411235,0.55374235
0.9203461,6.3150063,8.845154,20.996199,1.3298,-6.466,207.37654,-39.812706,3.614124,-0.119774885,-0.62753576,0.435433
1.2598739,5.7381535,9.570073,22.667599,0.7442,-7.259,208.3732,-39.711956,4.2438006,0.01803618,-0.44724062,0.26476377
1.2504467,5.296049,9.278579,21.777,0.89059997,-8.6132,208.44026,-39.703247,4.7049413,0.07772377,-0.06316826,0.17524904
1.0600328,4.9397616,8.470311,22.472399,0.56119996,-10.37,209.20503,-38.855114,4.9342093,0.052642994,0.38470522,0.13664529
0.7683891,4.733412,7.5114336,21.496399,1.0126,-10.858,209.73251,-38.22716,4.744068,-0.04376646,0.8259837,0.14988515
0.61141926,4.6532807,6.8938794,22.0088,1.22,-12.4074,210.0899,-38.12211,4.2437835,-0.10165544,1.0300773,0.17466615
0.44704235,4.613926,6.4672627,22.4114,1.3542,-12.017,209.64891,-38.031403,3.8436477,-0.042134378,1.0514942,0.18570769
0.2685995,4.5637226,6.0166287,22.692,0.92719996,-13.481,209.89267,-37.943768,3.2428017,0.059088055,0.9504383,0.2047764
0.047061026,4.5620766,5.3565025,23.0092,1.0857999,-14.1642,209.96803,-38.001682,2.5756967,0.22034782,0.7677283,0.28093472
0.020500353,4.7560816,4.873173,24.217,1.2688,-15.030399,209.3769,-38.17406,2.2087488,0.2783367,0.6799956,0.31655744
0.029927522,5.0481744,4.4664583,23.6436,1.8177999,-15.799,209.7234,-38.406673,1.9397173,0.27590525,0.5775241,0.30358404
-0.022894554,5.452645,4.420744,24.1316,1.464,-16.2992,210.13985,-38.63648,1.737588,0.21921535,0.39997682,0.23480341
-0.21622634,5.6991725,4.6332293,23.241,1.525,-17.6534,210.67065,-38.8305,1.6018239,0.16580628,0.26834437,0.15383212
-0.5329343,5.920487,5.1396775,24.4488,1.6714,-19.1174,210.43022,-38.98086,1.5000714,0.120341115,0.17771381,0.10423679
-0.7401824,6.1030445,5.918317,24.2658,1.9642,-19.983599,211.15106,-39.094288,1.4388442,0.11509514,0.11164778,0.12402163
-0.6302736,6.2616606,6.389451,24.7538,1.5982,-22.326,211.88242,-39.20075,1.4214125,0.13962634,0.09989012,0.17181833
-0.41135377,6.617648,6.818163,25.778599,2.1471999,-22.8018,212.5815,-39.337788,1.4372079,0.16705532,0.0680312,0.2341539
0.07826047,6.9450555,7.3234887,25.4736,1.9642,-24.2658,212.39444,-39.517,1.4971052,0.1876562,-0.022932427,0.27817017
0.53091425,7.3390512,7.760281,26.473999,2.074,-24.6562,213.08853,-39.674416,1.6741356,0.21784973,-0.1309663,0.272308
0.8309376,7.6487265,8.041749,26.7668,1.6958,-26.901,213.83786,-39.86265,1.9179807,0.23768453,-0.20629191,0.23178905
1.2266543,7.9228625,8.307506,26.1812,1.7445999,-27.1938,214.66457,-40.069004,2.1881115,0.21939854,-0.24517879,0.115744635
1.503858,7.9970827,8.406641,26.5838,1.6592,-29.1458,215.59808,-40.310936,2.473434,0.12057427,-0.17518243,-0.026030052
1.567005,8.046463,8.581492,26.473999,1.4274,-29.9266,215.67332,-40.382175,2.5403929,-0.0068780626,-0.032691617,-0.124954246
1.4211831,8.117915,8.958505,25.8396,0.5856,-31.695599,216.60405,-40.397053,2.525674,-0.08856547,0.09897415,-0.16787136
1.2984803,8.229844,9.24132,27.3524,0.7442,-33.3548,217.48637,-40.334194,2.394721,-0.06653235,0.17964567,-0.14768682
1.0256909,8.711602,8.606855,26.559399,0.6832,-33.9404,218.24837,-40.29654,2.1244354,0.09624292,0.35256317,-0.017519908
1.133879,8.692972,7.6788783,28.548,0.6222,-34.904198,218.0847,-40.378975,1.912007,0.07749062,0.14315696,0.00592879
1.4507366,8.701352,7.569568,28.108799,-0.6344,-38.1494,218.87732,-40.433506,1.8946598,-0.07299407,-0.3081139,-0.080371745
1.676016,8.269947,8.521189,28.816399,-0.7564,-39.223,219.97916,-40.362564,2.1064231,-0.22119716,-0.6644242,-0.2565867
1.4968998,7.340772,10.222717,26.9986,-1.2932,-41.0896,221.56618,-40.11738,2.4899402,-0.23803426,-0.65613055,-0.45155397
1.3935751,6.23293,10.756176,26.986399,-1.7933999,-42.0778,222.99185,-39.9557,2.6493053,-0.08027182,-0.38965142,-0.45896497
1.2339865,5.680543,10.721459,27.084,-1.9519999,-43.249,223.49005,-39.898445,2.652812,0.053808767,-0.15867841,-0.3795425
1.0899603,5.2756233,9.971177,26.0348,-3.0744,-45.0302,224.54408,-39.973873,2.5315282,0.24782676,0.1354462,-0.21983154
1.1481694,5.300688,8.6148615,27.413399,-3.6599998,-45.628,225.35225,-40.07799,2.3844874,0.3789596,0.19410126,-0.111264735
1.205705,5.437307,7.677457,27.376799,-4.7092,-46.9212,225.3045,-39.493294,2.7942493,0.39398143,0.050511293,-0.10518606
1.2129624,5.456984,7.050475,27.8526,-5.4168,-47.2262,226.12851,-39.82252,2.7340066,0.35669333,-0.15954441,-0.18264337
1.0375123,5.2541504,6.6240826,26.8156,-6.3806,-47.641,227.10866,-40.13667,2.7516797,0.2973888,-0.26909378,-0.28651378
0.645387,4.9510593,6.1721025,26.4618,-7.5396,-49.0318,228.22536,-40.38653,2.7764099,0.16049369,-0.30025324,-0.38763627
0.29456162,4.718897,5.9508634,27.3524,-7.7957997,-49.617397,228.50275,-40.48176,2.7615266,-0.005379211,-0.25373888,-0.4126338
0.073097974,4.596194,5.955053,26.522799,-8.8328,-51.5938,229.65526,-40.484837,2.7007413,-0.21243721,-0.15011829,-0.38353944
0.03119944,4.572177,5.9953055,26.522799,-8.8328,-51.5938,229.65526,-40.484837,2.7007413,-0.24123181,-0.13221535,-0.37486273
