@ HyperIMU - ianovir
@ Date:Tue Mar 31 16:30:20 EDT 2026, Sampling Rate:5ms

icm45631_accelerometer.x,icm45631_accelerometer.y,icm45631_accelerometer.z,mmc5616_magnetometer.x,mmc5616_magnetometer.y,mmc5616_magnetometer.z,orientation_sensor.x,orientation_sensor.y,orientation_sensor.z,icm45631_gyroscope.x,icm45631_gyroscope.y,icm45631_gyroscope.z
-0.060528412,6.2873983,7.7831755,3.8674,-32.9766,1.0126,182.838,-40.53403,-8.682737,-0.053942,-0.55347586,-0.24894257
-0.10377368,6.2799163,7.6383266,4.3919997,-32.2324,1.3176,183.33118,-40.385223,-8.228145,0.072128065,-0.7496422,-0.37587863
-0.14627077,6.2737064,7.567473,4.1846,-32.5374,0.732,183.54543,-40.365444,-8.081807,0.0985245,-0.8058991,-0.42980397
-0.5152771,6.2013564,7.2691703,4.1846,-32.5374,0.732,184.58699,-40.340866,-7.67403,0.08235356,-0.8392569,-0.57542574
-0.6819734,6.057181,7.1139216,4.697,-32.256798,0.6344,185.14874,-40.308933,-7.5241566,0.0039636292,-0.7741068,-0.5837693
-0.8099884,5.884723,7.098808,5.3069997,-31.8176,1.4274,185.94012,-40.177757,-7.351642,-0.16572301,-0.66805476,-0.51838607
-0.8267478,5.8884645,7.304036,5.6974,-32.269,1.1223999,186.40846,-40.01873,-7.250494,-0.2687607,-0.58017206,-0.43131948
-0.7790134,5.928193,7.6556845,5.917,-31.854198,0.45139998,186.8032,-39.813015,-7.155872,-0.3482165,-0.43921342,-0.30871344
-0.64441437,6.0628667,7.988628,5.917,-31.842,0.6466,187.23917,-39.463867,-7.0363545,-0.35286292,-0.3044667,-0.20304441
-0.4747253,6.229788,8.226253,5.9291997,-31.4882,0.56119996,187.43477,-39.242977,-6.977333,-0.27452296,-0.19746535,-0.14134169
-0.3266589,6.41676,8.264186,5.8072,-31.8786,0.060999997,187.63756,-38.994595,-6.9244065,-0.13471344,-0.13534628,-0.14030915
-0.25423428,6.5994673,7.9956613,5.8072,-31.854198,0.45139998,187.80708,-38.897774,-6.923667,0.05983748,-0.09451091,-0.20386045
-0.3366846,6.640468,7.59351,6.4294,-31.3662,0.6588,187.9349,-38.921684,-6.954622,0.164424,-0.09964031,-0.25960106
-0.448838,6.669498,7.1754227,6.2219996,-31.4882,0.26839998,188.00815,-38.957058,-6.974363,0.21478541,-0.117643185,-0.29465753
-0.5877017,6.7091517,6.8228765,6.4172,-31.5614,0.366,188.26947,-39.130325,-7.0302267,0.23924999,-0.17588189,-0.33890697
-0.7046435,6.7538185,6.5983453,6.3561997,-30.682999,0.183,188.48514,-39.252876,-7.0651236,0.20141232,-0.24479574,-0.37143204
-0.7154922,6.7501526,6.6113634,6.7588,-30.756199,0.28059998,188.73177,-39.35682,-7.086947,0.15115084,-0.28464854,-0.39694583
-0.6037129,6.624307,6.770428,7.0516,-30.7806,1.0613999,189.1509,-39.44516,-7.109456,0.09472741,-0.3017521,-0.44284397
-0.5745336,6.4718266,7.0016184,7.2468,-30.805,0.57339996,189.45865,-39.463146,-7.1359606,0.06388438,-0.3047165,-0.49422127
-0.57483286,6.3573537,7.1321025,7.3687997,-30.5122,0.97599995,189.95174,-39.45861,-7.207169,0.060636867,-0.26093337,-0.53880376
-0.6064064,6.201955,7.13936,7.0759997,-30.195,0.48799998,190.28543,-39.45191,-7.288414,0.05978752,-0.2136363,-0.56878084
-0.6870611,6.168137,7.0837693,7.0759997,-30.195,0.48799998,190.6147,-39.44453,-7.3958097,0.044465926,-0.17048602,-0.586384
-0.8546552,6.2078657,6.944681,6.4782,-30.2438,-0.0,191.09096,-39.414936,-7.605193,-1.16577336E-4,-0.10165544,-0.5787565
-0.96448916,6.256348,6.9161005,6.5148,-29.341,0.3172,191.51254,-39.346268,-7.8596025,-0.05609035,-0.030226838,-0.53354114
-0.9472809,6.2935333,6.998551,7.2102,-29.3044,0.5124,191.75676,-39.278236,-8.039484,-0.102554746,-0.0174866,-0.48226377
-0.88263744,6.386982,7.100454,8.0398,-28.609,1.0126,192.09155,-39.147152,-8.292479,-0.12112385,-0.048512824,-0.46464396
-0.7847744,6.5105076,7.2013097,8.723,-29.0238,0.91499996,192.31924,-39.05047,-8.429232,-0.10873334,-0.11334648,-0.4659596
-0.73823714,6.544176,7.36419,8.9426,-28.7066,0.1464,192.70573,-38.920147,-8.576689,-0.05161045,-0.22041443,-0.5058957
-0.77744216,6.566622,7.316007,8.4302,-28.914,0.0366,193.00609,-38.850853,-8.649872,-0.02013457,-0.27142534,-0.51735353
-0.7529016,6.55712,7.212383,8.7718,-27.876999,0.7442,193.33679,-38.80646,-8.690829,0.018302642,-0.3510976,-0.5196851
-0.7233482,6.567819,7.0573583,8.8572,-28.2796,-0.1464,193.69568,-38.781013,-8.69722,0.039952718,-0.44592497,-0.51662076
-0.78402627,6.4907556,6.684312,9.6868,-27.511,0.26839998,194.28197,-38.742104,-8.657258,0.018702336,-0.5237986,-0.4899912
-0.8903438,6.5215063,6.8731546,9.4672,-27.9502,0.54899997,194.68913,-38.700436,-8.5985365,-0.019085376,-0.5436001,-0.44372663
-1.0035446,6.66441,6.9350295,9.601399,-27.2426,0.46359998,195.27184,-38.606216,-8.462864,-0.08346937,-0.5406191,-0.36653578
-1.0017489,6.7434187,7.17849,10.321199,-26.6936,0.0976,195.62471,-38.52697,-8.341028,-0.13851053,-0.51951855,-0.3147921
-0.9044097,6.792874,7.221062,10.309,-27.0718,-0.305,195.9481,-38.415604,-8.212773,-0.18310969,-0.48880875,-0.28796268
-0.80482584,6.835371,7.5061216,10.1992,-27.1694,-0.305,196.2493,-38.271698,-8.095609,-0.22875804,-0.4135664,-0.28063494
-0.7009774,6.7785087,7.5358996,10.8214,-26.8034,-0.7808,196.52783,-38.108902,-8.002094,-0.25711963,-0.33627564,-0.2872632
-0.6595278,6.7191024,7.6320415,10.2602,-25.705399,0.305,196.89487,-37.840496,-7.9295216,-0.29692248,-0.2113547,-0.28601417
-0.69080204,6.6162267,7.55438,10.8336,-26.522799,-0.5856,197.09496,-37.64829,-7.9296675,-0.3445693,-0.106218606,-0.27585527
-1.0791116,6.8274403,7.871462,11.163,-25.656599,-1.1467999,197.33539,-37.321968,-7.99886,-0.36966673,-0.035989087,-0.24106528
-1.2678795,6.8854995,8.260071,11.0776,-25.4736,-1.0491999,197.45242,-37.097397,-8.066705,-0.3293476,0.052859493,-0.15328254
-1.2352585,6.736685,8.505626,10.8946,-25.0222,-0.7442,197.52342,-36.81432,-8.181663,-0.25555417,0.15001838,-0.07064586
-1.1469723,6.5616837,8.639477,11.2972,-25.0222,-0.93939996,197.5012,-36.675808,-8.273791,-0.18056163,0.22089739,-0.022915773
-1.2560581,6.4870896,8.572963,10.711599,-24.6196,-1.3176,197.40182,-36.540424,-8.437352,-0.06986313,0.3205044,0.015504786
-1.3842975,6.367903,8.157643,10.7238,-24.4854,-2.0008,197.23454,-36.49631,-8.643559,-0.002964395,0.39927736,0.040335756
-1.4061446,6.3259296,8.050055,10.7238,-24.4854,-2.0008,197.16495,-36.50158,-8.721443,-0.016603943,0.40896994,0.041018568
-1.5390228,6.135516,8.060005,10.9556,-23.5826,-1.9764,196.82343,-36.468063,-9.093487,-0.21999808,0.16682217,7.4942573E-4
-1.9116204,5.928193,8.856077,11.0776,-23.0458,-2.1594,196.74554,-36.28367,-9.204232,-0.35447836,-0.003330781,-0.05843855
-2.125303,5.5163155,9.762881,11.2972,-22.6798,-2.0618,196.86545,-35.748947,-9.185932,-0.32142037,-0.1575626,-0.0240982
-2.0620062,5.227814,9.967286,10.797,-22.5334,-2.2447999,196.92903,-35.557484,-9.122503,-0.1938348,-0.098058194,0.06428407
-1.7706618,4.677148,9.750611,11.407,-22.435799,-2.6352,196.93292,-35.39485,-9.025361,-0.030526608,0.03510643,0.16500689
-2.056694,4.6731076,9.298855,10.9556,-21.459799,-3.6843998,196.7964,-35.38051,-8.972232,0.053758804,0.11414586,0.24377985
-2.155754,4.7655087,9.030106,10.9556,-21.35,-3.4891999,196.59984,-35.420834,-8.934762,0.036605284,0.07372684,0.332795
-2.2350621,4.7338605,8.746393,10.9556,-21.35,-3.4891999,196.38297,-35.353905,-8.87093,-0.0565067,0.028494831,0.4083704
-2.232593,4.761319,8.715268,10.3822,-20.642399,-4.5383997,196.19687,-35.251015,-8.804805,-0.14292382,-0.046197932,0.44827315
-2.033126,4.745383,8.696863,11.0044,-20.069,-4.331,195.96588,-35.074394,-8.609503,-0.19786504,-0.081787325,0.46715868
-1.7964743,4.6294136,8.540417,10.711599,-20.0812,-4.4286,195.73785,-34.829544,-8.383139,-0.2298905,0.023831738,0.42698947
-1.7246482,4.560131,8.162731,10.125999,-19.8494,-4.4286,195.49593,-34.554043,-8.2464,-0.26321498,0.13040008,0.35286292
-1.7063924,4.4666824,7.779734,10.431,-19.703,-5.3069997,195.18616,-34.36525,-8.173101,-0.31084514,0.16200918,0.28511485
-1.8614918,4.416629,7.4140944,10.1504,-19.3736,-5.5875998,195.0615,-34.21139,-8.158722,-0.38220713,0.14438936,0.22506087
-2.1407156,4.4486513,7.190461,9.8454,-19.4956,-5.7827997,194.89612,-33.907814,-8.151054,-0.47490275,0.0697299,0.19276895
-2.3385365,4.545766,7.2731357,9.9674,-18.848999,-5.5754,194.74539,-33.50166,-8.087227,-0.58378595,-0.120840736,0.18445864
-2.123657,4.497882,7.48203,10.089399,-18.361,-6.344,194.76427,-33.17364,-7.967572,-0.6458884,-0.3048497,0.15837863
-1.7676691,4.414833,7.6767087,9.6868,-18.605,-7.2223997,194.87599,-32.615906,-7.6735764,-0.68242705,-0.45713302,0.061386295
-1.4296377,4.288539,7.715988,10.2968,-18.3366,-7.8079996,195.08098,-32.002155,-7.31915,-0.71368647,-0.5344738,-0.122006506
-1.3858687,4.137106,7.6953382,10.1138,-17.921799,-8.1862,195.38652,-31.565498,-7.100738,-0.7527232,-0.5395199,-0.2730241
-1.4232781,3.9552212,7.506795,9.6502,-17.2508,-8.5644,195.91396,-30.865623,-6.8377395,-0.80613226,-0.47901627,-0.40587232
-1.6486323,3.700912,7.2616887,10.248,-17.1532,-8.7474,196.41924,-30.112076,-6.668774,-0.88868564,-0.4050896,-0.41573143
-1.7290626,3.4377744,7.1398087,10.1748,-16.5798,-9.7112,196.98694,-29.289516,-6.5479574,-0.990924,-0.36578637,-0.3228193
-1.5941643,3.34051,7.2129817,9.894199,-16.286999,-10.492,197.47112,-28.392982,-6.4078627,-1.067532,-0.38119122,-0.21315333
-1.3891608,3.217358,7.345411,9.9064,-15.9332,-10.4798,197.68057,-27.757986,-6.2704597,-1.1289848,-0.49890104,-0.12933423
-1.3716531,3.3085623,7.73589,10.223599,-15.554999,-10.37,197.98203,-27.098305,-6.0675015,-1.1466213,-0.68221056,-0.09149655
-1.096245,3.4368765,8.275633,9.7355995,-15.2866,-11.528999,198.41992,-26.08716,-5.5704136,-1.114929,-0.8757622,-0.03450689
-0.8123078,3.334749,8.769437,9.2476,-15.030399,-11.333799,198.6533,-25.43349,-5.1288376,-1.0516108,-0.89986044,0.017536562
-0.40514383,3.0276177,9.147871,9.3574,-14.932799,-12.8954,199.05263,-24.508335,-4.444333,-0.9280888,-0.7056593,0.055757273
0.18450317,2.5671828,9.469966,9.2842,-14.3716,-12.3952,199.49536,-21.60524,-2.8451238,-0.75320613,-0.1921361,-0.020450994
-0.05626374,2.335843,9.597307,9.2232,-13.3345995,-14.310599,199.59163,-20.323862,-2.3916147,-0.5799889,0.45471823,-0.16112652
-0.8765023,2.270227,9.514558,9.1133995,-13.5786,-13.9324,199.70242,-19.470638,-2.9392374,-0.3990109,1.0506116,-0.16380781
-1.6833483,2.2426937,9.356541,9.2598,-12.5294,-14.2008,199.66476,-18.670443,-4.232957,-0.2691271,1.361157,-0.08027182
-2.0453217,2.7842321,9.213113,9.6746,-12.322,-14.0056,199.58737,-18.379597,-5.228813,-0.15276627,1.419912,0.085784264
-2.3088334,3.247211,8.827197,8.8938,-11.7852,-13.3102,199.10927,-18.313385,-6.7169456,-0.08936486,1.3722651,0.30686486
-1.9405752,3.4109144,8.596157,9.5892,-11.834,-13.3102,198.8106,-18.326752,-7.427032,-0.080604896,1.2538059,0.46734187
-1.7282395,3.5823991,8.480637,9.406199,-11.5412,-14.1764,198.2274,-18.353588,-8.307084,-0.12313897,1.0396034,0.48551127
-1.8169746,3.8614733,8.538771,9.7478,-10.516399,-13.5664,197.55904,-18.356617,-9.007561,-0.16006067,0.82077104,0.41629764
-2.0797384,4.10643,8.6025915,9.15,-10.3456,-13.176,197.17401,-18.405329,-9.396869,-0.20973928,0.65897834,0.3323953
-2.4240544,3.6391118,8.27077,9.76,-10.0772,-13.6518,196.35555,-18.713753,-10.373515,-0.32078752,0.6929024,0.29237595
-2.5706992,3.1234605,7.837195,9.516,-8.8938,-14.700999,195.73703,-18.362518,-11.234127,-0.45858192,0.812111,0.46839106
-2.4913914,3.141791,7.940594,9.894199,-9.174399,-13.6396,195.10745,-18.079697,-11.727982,-0.5529096,0.6219567,0.6238386
-2.335095,3.406949,8.536152,10.0162,-8.979199,-14.8962,194.65282,-17.85675,-11.944024,-0.62440485,0.3145423,0.6890553
-2.1897967,3.6650739,9.377714,10.4432,-8.0764,-15.164599,193.99367,-17.474598,-12.051128,-0.6245881,0.0033474348,0.6614598
-1.9094507,3.6537762,9.991901,9.7844,-7.4298,-15.738,193.68939,-17.060278,-11.870326,-0.54959553,-0.29122683,0.5818708
-1.5780034,3.628637,10.85142,10.1748,-7.5884,-15.738,193.67534,-16.80887,-11.603521,-0.39689586,-0.5670655,0.47456968
-1.0654198,3.6759226,11.7017355,10.1016,-7.015,-16.409,193.42789,-16.535873,-11.013159,-0.13831069,-0.7387672,0.3602906
-0.39010525,3.545364,12.021361,9.796599,-6.9052,-15.921,193.58012,-16.450783,-10.33331,0.06356795,-0.6124473,0.2469108
0.05125088,3.3395374,12.01171,10.125999,-6.4294,-17.08,193.83286,-16.495466,-9.968592,0.18272664,-0.32874808,0.07555877
-0.37349546,2.9144917,11.516858,10.1626,-5.4778,-17.5436,194.19513,-16.692034,-9.67293,0.1475536,0.06981317,-0.18817247
-0.91091895,2.7350013,11.112164,9.943,-6.0146,-17.4582,194.28253,-16.765015,-9.720433,0.037171517,0.17409992,-0.22760892
-1.2586019,2.482488,10.784681,10.675,-5.3314,-18.7148,194.76381,-16.7187,-9.966567,-0.19455092,0.14978522,-0.11179766
-1.1563994,2.3085341,10.780118,10.187,-4.9776,-18.3122,195.11957,-16.593292,-10.058332,-0.2895448,0.09645942,-0.015904479
-0.9720459,2.2188265,10.95048,10.492,-4.9898,-18.605,195.09274,-16.335169,-10.11855,-0.3195218,0.04251742,0.08182064
-0.89558107,2.3087587,11.069218,10.2114,-4.4286,-19.5688,195.36507,-16.161304,-10.124019,-0.24451263,0.045781583,0.1119642
-0.89116675,2.4293666,11.042657,10.6262,-4.3554,-20.1544,195.59715,-15.975022,-10.132912,-0.11602776,0.089931086,0.10623526
-0.8937854,2.5139117,10.813112,10.3334,-4.026,-20.3374,195.52509,-15.926439,-10.164328,0.036322165,0.14770348,0.061602794
-0.94174427,2.5050085,10.463933,11.2484,-3.8186,-20.6302,195.78542,-15.976218,-10.268939,0.17623162,0.19085374,-0.03185892
-1.083077,2.4883237,9.972972,10.858,-3.6843998,-21.0084,195.77794,-16.081781,-10.379353,0.2814843,0.1980982,-0.15248315
-1.210643,2.3785646,9.433379,10.7604,-3.6234,-21.3988,196.20747,-16.302574,-10.569679,0.33575937,0.16958672,-0.26561314
-1.4486417,2.2515972,8.828394,11.5534,-3.599,-21.7892,196.67673,-16.467379,-10.698212,0.3386738,0.06896382,-0.34115523
-1.6515503,2.1680245,8.498144,11.2727995,-3.3794,-22.3626,196.94662,-16.702383,-10.826212,0.29985356,-0.13809417,-0.3528463
-1.7265935,2.2476315,8.416068,11.370399,-3.4404,-21.886799,197.7276,-16.947927,-10.719481,0.25686982,-0.42668968,-0.24919237
-1.4168437,2.4842834,8.527024,11.2972,-2.928,-23.716799,198.45819,-17.179325,-10.257911,0.3141426,-0.5452655,-0.07475938
-1.3082815,2.6507554,8.607604,11.3948,-2.9401999,-24.2048,198.93364,-17.338362,-9.977652,0.3958966,-0.49297222,6.3284836E-4
-1.1327567,2.8760347,8.6218195,11.6022,-2.8792,-24.7904,199.0142,-17.556385,-9.714073,0.53082657,-0.3725645,0.074825995
-1.1278186,3.1696239,8.395268,10.3944,-3.0012,-24.497599,199.39534,-18.011698,-9.401356,0.69823164,-0.18365926,0.095943145
-1.2624925,3.3274915,8.047212,10.8214,-2.379,-24.6806,199.70352,-18.618196,-9.240281,0.8030513,0.022332886,0.08893185
-1.5099182,3.4871547,7.5977745,11.0044,-2.7694,-25.4736,199.64914,-19.087729,-9.242913,0.85815907,0.19198622,0.06793128
-1.858948,3.6211553,7.0064816,11.1142,-2.501,-25.656599,199.8742,-19.842731,-9.38351,0.851714,0.3064818,0.053758804
-2.1644332,3.6934302,6.554352,11.1996,-3.0133998,-26.9376,200.07237,-20.594166,-9.613508,0.78356624,0.2866137,0.03975287
-2.4248774,3.7935379,6.329521,11.102,-2.8304,-26.6448,199.99406,-21.051867,-9.757372,0.6471541,0.13006699,0.026279861
-2.5011926,3.942577,6.398878,11.1996,-2.9524,-27.328,200.26637,-21.611307,-9.844766,0.44277737,-0.14069219,0.018435873
-2.130241,4.050989,6.9490957,11.3948,-3.1598,-28.0112,200.62509,-21.983385,-9.734337,0.23143932,-0.24273066,7.8273355E-4
-1.7637784,4.1513963,7.8444524,11.407,-3.0133998,-28.694399,201.05684,-22.23424,-9.501371,0.103737175,-0.13418052,-0.05560739
-1.5893759,4.114361,8.233136,11.4192,-2.684,-29.0726,201.46687,-22.308825,-9.42798,0.06729843,0.04133499,-0.11084839
-1.5679028,4.0860043,8.459164,11.4192,-2.9157999,-30.0486,201.51581,-22.340876,-9.482551,0.068347625,0.19743204,-0.16011064
-1.7721581,4.049343,8.511087,11.528999,-2.745,-30.3414,201.55653,-22.375887,-9.62749,0.09176301,0.34047243,-0.18692343
-2.2331917,3.9242463,8.645837,11.9194,-2.9157999,-30.439,201.90985,-22.453318,-9.950487,0.13904345,0.34140503,-0.12577029
-2.3966708,3.8018427,8.7353945,12.3342,-2.684,-31.500399,202.20825,-22.58444,-10.263639,0.22121382,0.24602814,0.04133499
-2.2785318,3.7104888,8.804827,12.6514,-2.1227999,-31.293,202.40239,-22.802395,-10.443071,0.33795768,0.077190846,0.27886963
-1.8739117,3.9502084,9.2069025,12.4318,-2.8304,-32.6838,202.1479,-23.14352,-10.39508,0.50033325,-0.25044143,0.561986
-0.85173726,4.5773396,9.825205,12.9198,-2.8792,-32.391,202.17743,-24.006521,-9.655255,0.6986646,-0.5549248,0.7639313
-0.37304655,4.88058,9.981651,12.2122,-3.4404,-33.8672,201.77641,-24.668879,-8.952246,0.7327718,-0.5318924,0.7259937
-0.3003975,4.9678187,9.749189,12.688,-4.0016,-34.648,201.72385,-25.343023,-8.287225,0.63094985,-0.3182561,0.61930877
-0.38973114,4.893075,9.384298,12.1634,-4.5262,-35.6362,201.68382,-25.916529,-7.820187,0.38895196,-0.057572547,0.5376713
-0.5554548,4.544494,9.016937,12.4562,-4.8922,-36.234,201.27243,-26.397335,-7.556592,-0.07144525,0.4430938,0.5635681
-0.6541408,4.48419,8.986486,12.4684,-4.7702,-37.1978,200.98318,-26.411745,-7.6741877,-0.21964835,0.65751284,0.6684378
-0.92880064,4.883124,9.116596,13.0296,-5.4533997,-37.2222,200.2409,-26.302698,-8.035677,-0.23700172,0.8767615,0.7891786
-1.0817302,5.247791,9.078364,13.2492,-5.2338,-38.088398,199.60764,-26.261871,-8.285755,-0.162259,0.99810183,0.87492955
-1.0544214,5.3729625,8.805948,14.1276,-5.5144,-37.6004,199.22733,-26.26548,-8.568877,-0.09792496,1.0672822,0.9089368
-0.93007255,5.2618566,8.2532625,14.3228,-5.8315997,-38.5886,198.47656,-26.39788,-8.83678,-0.033507656,0.99375516,0.903441
-0.85689974,5.232303,8.216975,14.6765995,-6.8929996,-38.9058,198.00986,-26.88386,-8.853228,-0.03973622,0.65288305,0.8343773
-0.91944826,5.245846,8.883985,14.2862,-6.6246,-38.405598,197.3686,-27.108055,-8.86776,-0.058838245,0.07189491,0.68330973
-1.1052234,5.24607,9.810242,14.6644,-7.0759997,-38.8082,197.0923,-27.155396,-8.704488,-0.02559705,-0.3545783,0.5429839
-1.4200609,5.0534863,10.708292,14.7741995,-7.1126,-39.589,197.2523,-27.170864,-8.374456,0.05767247,-0.6247046,0.40513954
-1.8942624,4.6784945,11.45012,14.5302,-8.2106,-40.1014,197.21417,-27.211891,-7.956054,0.18141098,-0.6636914,0.29379153
-2.136002,4.1855884,11.52681,14.9206,-8.3204,-40.7846,197.58113,-27.361452,-7.358426,0.28554785,-0.45839873,0.31727353
-2.0705357,3.5227685,11.064579,14.2008,-8.9304,-41.48,197.5297,-27.52453,-7.055575,0.32904786,-0.16427411,0.45698315
-1.885359,3.060538,10.190845,13.493199,-9.333,-41.8826,197.5748,-27.823174,-6.764968,0.3013191,0.17431642,0.6730842
-1.9610757,3.226112,8.96434,14.249599,-10.1016,-41.7972,197.38297,-27.650183,-6.8959193,0.24153158,0.45651683,0.87839353
-2.0607343,3.5063083,7.8686185,13.822599,-11.0776,-42.992798,196.93768,-27.43197,-7.280177,0.14295712,0.5086935,0.988276
-2.0853498,3.7526867,7.2203884,14.1032,-11.431399,-43.2978,196.30507,-27.585445,-7.2724495,0.012440467,0.2723746,0.99032444
-1.9529952,4.252626,7.454422,14.457,-12.6636,-43.4198,195.81706,-27.693323,-7.0678754,-0.13038342,-0.25195694,0.882124
-1.0311527,4.5100775,8.961348,14.151999,-12.907599,-44.2982,195.54173,-27.618345,-6.208844,-0.121057235,-1.0634518,0.62766904
-0.24690205,4.26527,10.29387,12.809999,-13.969,-44.712997,195.94835,-27.50651,-4.7566953,0.025430514,-1.345852,0.29302546
-0.059780225,4.119598,10.465429,11.9194,-13.7616,-45.103397,196.15985,-27.506355,-4.008324,0.13664529,-1.2743734,0.11904211
-0.22191256,3.9431005,10.168175,11.0654,-14.9816,-45.4206,196.81532,-27.56372,-3.3422644,0.22344545,-0.97417015,-0.017003637
-0.40955812,3.3720086,9.447744,10.3578,-15.323199,-46.3112,197.58301,-27.66642,-2.6365921,0.22867477,-0.38292325,-0.078273356
-0.62107086,3.146056,8.874258,9.943,-15.5794,-45.8232,197.83032,-26.583477,-2.5490937,0.2778371,0.36030722,-0.021150459
-1.1355999,3.2582092,7.435867,10.6262,-16.1406,-46.811398,198.09381,-26.810188,-2.8356662,0.35179707,0.64886945,0.0808214
-1.2782044,3.454908,6.5991683,10.4066,-16.7018,-47.116398,198.27802,-27.015879,-3.130161,0.32923105,0.4604305,0.24253082
-1.0690111,3.814861,6.2789435,10.7848,-17.0922,-46.4454,197.92062,-27.313137,-3.3600173,0.26131642,0.010425344,0.40182543
-1.0167875,4.147431,6.6726403,10.4676,-17.5436,-46.262398,198.11433,-27.478542,-3.2880425,0.2587184,-0.21871573,0.44784015
-0.6637176,4.4993033,7.229217,9.7112,-18.9588,-47.274998,198.19275,-27.806616,-2.8470268,0.36813456,-0.2785865,0.38075823
-0.21630116,4.5621514,7.206996,9.601399,-19.1418,-47.274998,198.4247,-28.138098,-2.5037336,0.47645158,-0.10393702,0.24692744
-0.17956513,4.5179334,7.073669,9.5526,-20.313,-47.397,198.28413,-28.55939,-2.341224,0.5491958,0.14995176,0.094877295
-0.5649568,4.612729,6.801104,9.3452,-20.483799,-47.1042,198.52213,-29.20116,-2.473061,0.56085354,0.22950746,0.022416156
-0.69663787,4.7673793,6.757634,9.1133995,-21.3744,-47.031,198.86984,-29.523685,-2.5701761,0.5368553,0.053675536,0.024131509
-0.5049521,4.95712,7.0766616,9.076799,-22.3748,-47.348198,199.26045,-29.986872,-2.5792325,0.5172203,-0.2576692,0.027312404
0.0012719197,5.208062,7.4533744,8.845,-22.997,-47.2628,199.86745,-30.58421,-2.2377448,0.5985413,-0.61800975,-0.046214584
0.14028525,5.3764043,8.02514,7.8202,-23.668,-47.189598,200.17024,-31.09752,-1.810488,0.7332714,-0.63406414,-0.10120578
0.3402011,5.386804,8.104672,7.7591996,-24.9734,-46.8236,200.9565,-31.758957,-1.4197326,0.9835296,-0.38042516,-0.2268595
0.21158758,5.5325513,7.557223,7.3322,-25.6932,-46.6406,201.72414,-32.598362,-1.2558324,1.1198585,-0.12940083,-0.32070425
-0.05259762,5.7511716,6.4781113,7.381,-26.9376,-46.6772,202.02377,-33.53852,-1.3010429,1.0026816,-0.20539261,-0.35737616
0.25243863,5.8500075,6.0865846,7.6372,-27.938,-45.725597,202.93575,-34.5721,-1.281762,0.43145272,-0.37599522,-0.24301378
0.40888476,6.1605053,6.623484,7.4175997,-28.5968,-46.030598,203.72833,-34.92987,-1.1242051,0.08824904,-0.47884974,-0.1306832
0.7508067,6.4861917,7.457265,6.71,-28.792,-45.8354,204.50934,-35.87607,-0.11707506,-0.10310432,-0.6966495,-0.08328618
1.0813562,6.438308,8.289325,6.466,-29.6216,-46.2502,205.39392,-35.779884,0.34794688,-0.23265505,-0.74346364,-0.21057197
1.2806735,6.566248,8.779388,5.368,-29.8412,-46.0672,205.7397,-35.647816,0.61531365,-0.32005474,-0.6331648,-0.3350266
1.3080572,6.5393877,9.208474,4.8677998,-29.8046,-46.6406,206.7299,-35.380672,0.8883973,-0.4190289,-0.4451922,-0.40473986
1.0625018,6.621015,9.494955,4.9532,-30.2438,-46.4576,207.66718,-35.031696,0.9956347,-0.4687408,-0.2106719,-0.39949387
1.0551696,6.4941225,9.224111,4.8556,-30.060799,-46.262398,207.90976,-34.767807,0.9569411,-0.518103,0.09172971,-0.32826513
1.2693009,6.219388,9.168146,4.8556,-30.012,-47.043198,208.5412,-34.316772,0.74825394,-0.66957027,0.13579594,-0.30543262
1.2794015,5.895647,10.105476,4.7702,-29.6094,-46.1526,208.64705,-33.92798,0.59478265,-0.8883026,0.105136104,-0.37626168
1.166874,5.7071033,10.694899,4.4774,-29.670399,-47.031,209.29115,-33.193115,0.34895054,-0.91379976,0.18810585,-0.4518704
0.48699558,5.8159647,11.346346,4.4895997,-29.401999,-46.9334,209.87114,-32.679047,0.12939632,-0.8252676,0.09539357,-0.4787831
0.32284313,5.7715974,11.876363,4.9898,-29.243399,-46.238,210.65273,-31.782114,-0.21284625,-0.5406191,-0.09034743,-0.41421592
0.630947,5.622558,11.958514,4.1967998,-29.0726,-47.214,210.87726,-31.455626,-0.29968783,-0.31059533,-0.16061026,-0.35799235
1.0815806,5.643657,12.020015,4.514,-28.8652,-47.0188,211.57716,-31.157671,-0.34591615,-0.07087902,-0.15942784,-0.31029555
1.5254806,5.556718,11.501296,3.7819998,-29.401999,-46.347797,212.18709,-31.10274,-0.36745387,0.1381941,-0.03642209,-0.288862
1.3945477,5.035829,9.454329,3.6599998,-29.7802,-45.091198,213.35014,-31.541716,-0.9410587,0.105369255,0.123771824,-0.5639512
0.94324064,4.5699325,8.842236,3.6355999,-30.5,-45.201,213.97005,-31.478441,-1.0950245,0.0831696,0.19250248,-0.6741001
0.393098,3.9722052,8.100557,4.1236,-30.792799,-44.627598,214.72552,-31.251772,-1.3458614,0.033574272,0.1334977,-0.6769979
0.27076924,3.7895725,7.540912,4.514,-30.719599,-43.6516,215.29414,-31.266254,-1.8354516,0.03590582,0.06525,-0.54946226
0.36541504,3.8685062,7.2298903,4.7214,-30.622,-43.456398,215.66364,-31.279444,-2.1172984,0.04406623,0.03434035,-0.4494556
0.4766706,3.9655461,7.1052423,5.002,-31.146599,-43.6516,215.87726,-31.293234,-2.2664516,0.08003867,0.0025147395,-0.38945156
0.49051207,4.2177606,7.208567,4.5994,-31.2076,-42.7854,216.3518,-31.41988,-2.5124896,0.22592688,-0.116227604,-0.3349267
0.3979612,4.21387,7.3175783,4.8068,-30.987999,-42.1876,216.6566,-31.629574,-2.5442827,0.39303216,-0.22805858,-0.31742343
0.26672903,4.055628,7.236699,4.7702,-31.6834,-41.821598,216.87416,-31.847042,-2.5246658,0.50521284,-0.23908345,-0.30889663
-0.0859668,3.8221934,6.9223104,4.5628,-31.842,-41.4312,217.09451,-32.12707,-2.5011296,0.6156782,-0.19653273,-0.281451
-0.43185413,3.6828809,6.3950624,4.0626,-32.0128,-40.7602,217.26347,-32.636665,-2.487749,0.67464966,-0.12851818,-0.18340945
-0.47884035,3.789722,5.9990463,3.9406,-32.5374,-40.6748,217.23824,-33.011547,-2.4829934,0.66932046,-0.06128637,-0.06308499
-0.31827918,4.534543,5.319168,3.5135999,-33.0498,-39.9062,217.0408,-33.73835,-2.4936867,0.5049131,0.2463279,0.1629085
-0.16579847,5.2750998,5.01286,3.7087998,-33.0498,-38.4422,216.50633,-34.297264,-2.6490521,0.29692248,0.3787431,0.17824674
-0.13901334,5.7265563,4.990414,3.1964,-33.245,-38.4422,216.30687,-34.481625,-2.766115,0.17030284,0.31727353,0.101955205
-0.23163901,6.150255,5.199832,3.1842,-33.6232,-38.6496,215.92618,-34.5917,-2.8775806,0.05995406,0.18537462,-0.019801494
-0.44711718,6.394389,5.5184107,3.1842,-33.6232,-38.6496,215.8919,-34.622356,-2.9255033,0.012007466,0.049545366,-0.13109954
-0.64082307,6.5803885,6.0380273,4.2578,-34.1112,-38.857,215.91606,-34.647438,-2.9961846,0.0057289433,-0.1780802,-0.28604746
-0.8605659,6.6250553,6.419304,3.3916,-33.4402,-38.7472,215.85675,-34.701923,-3.0209172,0.041767992,-0.40663838,-0.42189336
-1.024045,6.5911627,6.630442,4.0626,-33.891598,-37.9786,216.1549,-34.93616,-3.0333798,0.07244448,-0.5204845,-0.49683595
-1.2059295,6.448483,6.8190603,3.4648,-33.9282,-38.0762,216.31882,-35.28506,-3.094227,0.10601876,-0.57827353,-0.5459483
-1.2914474,6.3086467,7.0515227,3.7575998,-34.16,-37.5882,216.74593,-35.68939,-3.2427237,0.10825038,-0.57416004,-0.5139728
-1.3104514,6.313585,7.2340055,2.7694,-33.794,-36.612198,217.13503,-36.007965,-3.3230042,0.07940582,-0.49582005,-0.43639892
-1.2618191,6.3999257,7.4182096,3.6843998,-33.611,-37.3808,217.2276,-36.14888,-3.352572,0.040069293,-0.36726856,-0.33700842
-1.2696751,6.6079965,7.7699327,3.0744,-33.7086,-37.1002,217.49603,-36.175846,-3.3197126,-4.6630934E-4,-0.21023889,-0.22138035
-1.1820623,6.8091097,7.9313917,2.5742,-33.7208,-36.8074,217.37622,-36.168423,-3.2925174,-0.011324655,-0.17568204,-0.16810451
-1.1940333,7.1733274,8.066589,2.8792,-33.5866,-36.307198,217.51114,-36.1546,-3.266803,-0.02584686,-0.1642408,-0.11251378
-2.0305824,7.142727,8.477943,2.4766,-33.7208,-36.612198,217.35266,-36.128075,-3.2145832,-0.038953483,-0.15193358,-0.038487174
-1.0920552,7.275904,8.693048,2.8792,-33.4646,-35.7216,217.42274,-36.104595,-3.1525152,-0.050094947,-0.23886696,0.023382083
-0.6669348,7.382072,9.155427,2.4766,-33.5134,-36.112,217.19202,-36.075905,-3.0298383,-0.0023815085,-0.31144467,0.009026417
-0.2688988,7.329998,9.085247,1.8055999,-32.878998,-35.4166,217.28868,-36.066635,-2.8834448,0.038587097,-0.1981315,-0.030859686
-0.37828386,7.265579,8.482432,1.7933999,-33.1474,-35.4288,217.0688,-36.08306,-2.790047,0.014955207,0.35023162,-0.14217438
-0.7408558,7.5610385,8.217873,1.6104,-32.805798,-35.4166,217.03023,-36.106663,-3.0207782,-0.079189315,0.49811828,-0.18335949
-1.0320506,7.441553,7.9441857,1.8055999,-32.647198,-34.5382,216.59666,-36.062973,-3.296387,-0.22561045,0.3661361,-0.18902183
-1.1513118,7.207445,8.300772,1.8055999,-32.6228,-34.050198,216.56276,-35.934307,-3.528702,-0.39902756,0.27327392,-0.2335377
-1.6677859,7.0946183,8.736891,2.4278,-32.1958,-34.7212,216.22919,-35.587383,-3.83186,-0.56363475,0.117743105,-0.31231067
-2.356867,6.993164,9.284863,1.4274,-32.1348,-34.4284,215.96153,-35.25245,-3.9798408,-0.742048,-0.21010566,-0.339723
-2.711209,6.803723,10.008212,1.6714,-31.3174,-34.3186,216.3062,-34.588528,-3.9910192,-0.9096196,-0.5824037,-0.24702737
-2.3728783,6.215497,10.146702,1.8055999,-30.414598,-34.2942,216.38086,-33.776005,-3.689156,-1.0295278,-0.85186386,-0.04374981
-1.3750199,5.38022,9.939678,0.732,-29.8778,-34.77,216.43628,-32.867355,-3.1131895,-1.0869504,-0.7588352,0.17195156
-0.9959879,5.0031333,9.7138,1.0613999,-28.9994,-35.2336,216.32552,-31.926632,-2.4924293,-1.0855181,-0.59056413,0.2245113
-0.7628525,4.779575,9.604265,0.0,-28.3284,-35.1238,216.39006,-31.300972,-2.1457486,-1.0777241,-0.4525532,0.23250517
-0.70060325,4.488455,9.591322,-0.1952,-28.0966,-35.7094,216.03232,-30.687843,-1.8481195,-1.0772412,-0.38843566,0.19651608
-0.5661539,4.201375,9.672201,-0.8296,-26.6204,-35.6728,216.05513,-29.764977,-1.4687804,-1.089182,-0.38437212,0.14257407
-0.2033575,3.908235,9.886557,-1.1712,-25.2052,-35.453197,215.74675,-28.519112,-1.0079206,-1.0786068,-0.39994353,0.09839127
0.031648353,3.5426702,9.9651165,-0.96379995,-25.156399,-36.417,215.40851,-27.8996,-0.7791667,-0.99473774,-0.3962297,0.090397395
0.19782092,2.9487586,9.957485,-1.4396,-24.6684,-36.697598,215.10278,-26.951866,-0.43439052,-0.8159414,-0.3972456,0.08030513
0.36017773,2.5006688,10.082058,-1.5006,-23.668,-36.295,214.84903,-25.786749,0.079556786,-0.53798777,-0.57226145,0.081687406
0.16228199,2.5081508,10.043153,-1.9764,-23.094599,-36.770798,214.94586,-25.377733,0.39489946,-0.27280763,-0.6139795,0.16082676
0.524405,2.148871,9.827749,-2.3546,-22.6554,-36.661,214.62315,-24.458042,0.9645621,0.021816615,-0.58167094,0.29737213
0.10512042,2.4065468,9.113678,-2.8304,-22.0698,-36.7464,214.55992,-22.760267,1.3671204,0.30866346,-0.4559839,0.46051377
-0.31573534,3.1093946,8.123751,-3.0377998,-22.240599,-36.453598,213.93832,-22.970266,1.8460515,0.5165875,-0.1808281,0.73030704
-0.16168344,3.2428713,7.2182937,-3.7454,-22.472399,-36.9538,213.18744,-23.253208,2.091426,0.5704795,-0.004230092,1.0237489
-0.34760815,3.166631,7.0400004,-4.0138,-21.7404,-36.2462,212.38739,-23.704243,2.4535458,0.52368206,-0.15458155,1.2865309
0.755221,2.2011693,7.527146,-4.3188,-21.777,-35.1848,211.37022,-23.975178,2.8022707,0.50113267,-0.3914334,1.2425312
2.1018846,1.9419968,7.6395984,-4.3188,-21.654999,-36.051,210.19739,-24.353369,3.5432246,0.5391535,-0.7232458,0.8221034
2.1725883,2.844985,7.7059627,-5.4045997,-21.3744,-34.8798,209.83841,-24.785614,4.3933067,0.6014391,-0.731223,0.41280034
1.7038486,3.7742345,7.5736084,-6.4049997,-21.227999,-34.7822,209.3714,-25.126762,4.8451066,0.64810336,-0.4337343,0.14587155
1.3490578,4.44491,7.539865,-6.1976,-21.167,-35.367798,208.95341,-25.700861,5.0951204,0.7186493,0.21360299,-0.06320157
1.179294,4.383185,7.4381113,-6.6977997,-21.1304,-34.2942,208.92892,-26.110395,4.9572053,0.78045195,0.56163627,-0.14966865
0.70135146,4.1219177,7.326781,-5.6974,-21.069399,-34.099,208.37166,-26.778282,4.472895,0.8580758,0.61023235,-0.23901685
0.43417352,4.028843,7.377059,-6.3928,-21.0206,-34.196598,208.3447,-27.271158,4.105449,0.9383976,0.48959148,-0.3491991
0.14522329,4.4311438,7.293262,-5.6974,-21.1182,-33.4158,207.9851,-28.1175,3.6203125,1.1078844,0.22073086,-0.5174368
-0.14440028,4.828207,7.93199,-5.8072,-21.2158,-33.4158,207.78181,-29.117235,3.2262247,1.3133436,0.3263999,-0.52992725
-0.06815993,4.9021277,7.5073185,-4.819,-21.4354,-33.3304,207.94104,-29.87917,2.9115152,1.4573166,0.53495675,-0.4156315
-0.11439795,5.011214,6.9870286,-4.7458,-22.1918,-32.6594,207.46089,-30.717592,2.506297,1.588616,1.0438668,-0.1716518
-0.26613048,5.0766053,6.167314,-4.6482,-21.9966,-32.3666,206.66348,-32.053616,1.6999389,1.5518608,1.0846188,-0.010708461
-0.81791914,5.877017,5.4613237,-3.965,-22.3748,-31.8786,206.15076,-33.336628,0.97271174,1.2439967,0.8420547,0.2935084
-0.45774144,6.4146647,5.4871364,-4.1358,-21.8746,-32.1592,205.04942,-34.39106,0.5143282,0.9149822,0.64923584,0.43816423
-0.1022773,6.879739,5.7603745,-4.453,-22.0942,-31.0978,204.16609,-34.94193,0.3306201,0.71003926,0.5299772,0.41301683
0.4635025,7.6505218,6.3644614,-4.8556,-22.313799,-31.4882,203.64574,-36.799065,0.41598776,0.46934035,0.3286648,0.2471939
0.88046765,7.833828,7.5252004,-4.5383997,-21.838,-31.293,202.96925,-37.95913,0.4897907,0.099706925,-0.01505513,-0.17946248
0.3966893,7.4785132,8.858023,-3.9162,-21.2036,-31.5614,202.76044,-38.048763,0.40870616,-0.0017320061,-0.15071784,-0.37304747
0.10945991,7.242759,9.559449,-5.2826,-20.4594,-31.4516,202.67813,-38.05369,0.34769076,0.00456317,-0.1558639,-0.36092344
-0.21173722,7.217321,9.404873,-4.3919997,-20.7156,-32.0372,202.96965,-38.063515,0.25170565,0.04388304,0.3193886,-0.053459033
0.45796588,6.689998,8.178818,-5.0752,-20.3862,-31.842,202.53387,-38.0847,-0.07871283,-0.1565134,0.6810115,0.1508011
0.8218097,6.528689,7.737162,-3.8551998,-20.0324,-32.805798,202.01744,-37.981365,-0.32758832,-0.5174868,0.7044269,0.13877699
0.42609307,6.6246066,8.566828,-4.1114,-19.007599,-33.4646,201.5746,-37.523167,-0.719251,-0.86328846,0.52606356,0.05037806
-0.20784664,6.556746,10.242694,-4.3066,-18.666,-33.55,201.10571,-36.757584,-1.0064753,-0.9361826,0.2492923,0.003680513
-0.043469723,5.971887,10.920628,-4.6848,-18.2024,-32.9644,200.78288,-36.23356,-1.114243,-0.69923085,0.11171439,0.044749044
0.28992286,5.3857565,10.877532,-4.5506,-17.5558,-34.208797,200.70235,-35.6542,-1.1480186,-0.2994372,-0.16937022,0.14663763
1.1757027,5.0508676,10.100912,-4.5506,-17.5924,-34.7944,200.47632,-35.406834,-0.9367752,0.11133135,-0.43176913,0.3128436
1.9538182,5.0175734,9.322423,-5.2093997,-16.713999,-34.4894,200.30115,-35.45838,-0.4931931,0.29284227,-0.5304935,0.35241327
2.4054992,5.140725,8.737564,-4.7214,-16.8116,-34.8798,200.17897,-35.66932,0.087653555,0.30699807,-0.5334912,0.26111656
2.4664018,5.2107553,8.093,-5.4045997,-16.409,-35.1604,200.26292,-35.74517,1.3925428,0.17924598,-0.4219933,0.02712921
2.1148283,5.0620155,7.732972,-5.9048,-16.7262,-35.6606,200.31885,-35.469948,4.1247816,-0.008177067,-0.28771287,-0.21908212
1.6060604,4.6287403,7.5333557,-5.7827997,-16.0796,-35.3434,200.50499,-35.44937,4.251831,-0.21143797,-0.19293548,-0.4350333
1.011625,4.197709,7.678205,-5.0996,-16.360199,-36.1364,200.7629,-35.36169,4.2126794,-0.37637824,-0.17193492,-0.5534592
1.011625,4.197709,7.678205,-5.9658,-15.8112,-36.612198,200.7629,-35.36169,4.2126794,-0.37637824,-0.17193492,-0.5534592
0.2454805,3.6124015,8.298378,-6.344,-15.3842,-36.6,201.76738,-34.638756,3.9860964,-0.3445027,-0.25295615,-0.3714487
0.2928408,3.8180783,8.408137,-5.6363997,-15.1036,-37.075798,202.0102,-34.407234,3.9725227,-0.17276761,-0.2635314,-0.2128369
0.54400754,4.0693946,8.116194,-6.1488,-15.3476,-37.8688,202.24754,-34.177467,4.0243535,0.07199483,-0.16790468,-0.068947166
0.70718735,4.324078,7.7778635,-6.6246,-15.030399,-38.1494,202.34349,-34.205006,4.0822525,0.211388,-0.08605073,-0.031359304
0.7118261,4.704232,7.123573,-6.1243997,-14.969399,-37.3686,202.40837,-34.393772,4.122177,0.3552611,0.030926302,-0.045448508
1.2506711,4.33141,6.906299,-6.8076,-14.457,-38.918,202.44417,-34.69727,4.0734124,0.4199615,0.09496056,-0.17205149
0.08880992,5.172224,6.2003837,-6.2342,-15.1036,-38.0518,202.55038,-35.075897,3.8732574,0.4800155,0.30126914,-0.36064032
-0.39863458,5.4742675,5.864223,-6.039,-15.2987995,-38.5398,202.62308,-35.355965,3.6244636,0.4521202,0.3437366,-0.3141093
-0.51063836,5.3708677,5.528885,-6.2464,-15.4939995,-38.7472,202.69624,-35.74572,3.2335837,0.3409554,0.29052737,-0.1972322
-0.33002573,5.222502,5.5775924,-6.1366,-15.225599,-38.8326,202.70222,-36.038128,2.9296856,0.23345444,0.25020826,-0.15318261
-0.27525836,5.2994905,5.930213,-5.6242,-15.030399,-38.8326,202.68271,-36.223824,2.6771796,0.14239089,0.23643549,-0.14254077
-0.372448,5.621885,6.378677,-4.941,-15.4696,-39.3206,202.67184,-36.306763,2.5192459,0.10097262,0.19411792,-0.11123143
-0.31364042,5.900884,6.905252,-5.7339997,-15.2744,-40.0038,202.67328,-36.427044,2.2688422,0.09592649,0.13386409,-0.07169506
-0.04249708,6.1092544,7.503204,-5.4168,-14.884,-39.6988,202.68915,-36.5189,2.1464608,0.14482236,0.10666826,-0.04546516
0.16707039,6.331466,7.815048,-5.612,-14.823,-39.9916,202.67258,-36.609253,2.0792222,0.242281,0.14390638,-0.035972435
0.15502456,6.6120367,7.8237276,-5.2093997,-14.6522,-40.4796,202.66457,-36.822273,1.9524555,0.36771822,0.28458193,-0.041484877
0.04511574,6.7905545,7.711125,-5.2338,-15.1768,-40.198997,202.59218,-37.022743,1.8160787,0.43721497,0.36825114,-0.03867037
-0.023493104,6.970269,7.4842744,-5.2338,-15.1768,-40.198997,202.5263,-37.26696,1.6413041,0.48337957,0.43288496,-0.027712097
-0.18278234,7.191434,7.2099137,-5.2216,-14.9084,-40.2844,202.36052,-37.73708,1.3154985,0.48747644,0.484612,-0.016703866
-0.3728969,7.4244943,7.0964136,-4.4286,-15.2012,-41.370197,202.20947,-38.189995,1.0344657,0.45819888,0.48249692,-0.004396631
-0.54535425,7.507618,7.1588874,-4.6238,-15.2012,-41.175,202.01447,-38.770344,0.6408968,0.41678062,0.41614777,0.021933192
-0.7703344,7.515175,7.266627,-4.2334,-15.2012,-41.5654,201.76056,-39.34669,0.24239045,0.3663526,0.31785643,0.055091117
-0.82719666,7.5019317,7.399879,-4.5383997,-15.3963995,-41.663,201.62341,-39.56773,0.114459954,0.3074644,0.24421287,0.0857343
-0.6373066,7.518616,7.759907,-4.8434,-15.5428,-42.443798,201.49942,-39.828476,0.0013233491,0.19245252,0.17871305,0.115611404
-0.6183026,7.62456,8.488343,-3.3428,-15.457399,-42.151,201.38731,-39.99092,-0.060519755,0.09106355,0.25758594,0.13917668
-0.9048586,7.6816463,9.46009,-4.1358,-15.518399,-42.639,201.08131,-40.096027,-0.22531699,0.11647741,0.56121993,0.22464453
-0.89438397,7.611691,9.12146,-3.355,-16.0308,-42.846397,200.76112,-40.17007,-0.40265447,0.27160853,1.0051131,0.34681755
-0.79494977,7.466692,8.176872,-2.6474,-15.677,-43.4198,200.07741,-40.392567,-0.83985305,0.3008861,1.0959935,0.417147
-0.45893854,7.590442,7.5849056,-2.1594,-15.9332,-43.7126,199.2785,-40.664673,-1.3070034,0.22730915,0.85874194,0.4603972
-0.19744682,7.811083,7.398083,-1.7811999,-16.47,-44.1152,198.52866,-40.868786,-1.5828756,0.11058193,0.45008844,0.40970272
-0.3760393,7.9735146,8.194979,-1.7933999,-16.8482,-44.5178,198.1869,-40.94487,-1.572117,-0.1004397,-0.2658796,0.18377584
-0.46963763,7.431228,9.293019,-1.647,-15.8234,-45.2742,198.3125,-40.86364,-1.3004912,-0.12298909,-0.52489775,-8.9931086E-4
-0.5288941,6.355558,9.626112,-1.7567999,-16.0796,-44.9814,198.71298,-40.76421,-0.9960902,-0.04594812,-0.4083704,-0.14362328
-0.6637176,5.471275,9.483882,-1.5982,-16.9946,-45.5914,199.00768,-40.718662,-0.8612817,0.011374617,-0.13876033,-0.18812251
-0.9401731,5.194819,8.837073,-1.4884,-17.019,-46.2746,199.25739,-40.63534,-0.9661666,-0.0010658499,0.20256144,-0.1629418
-1.4038252,5.359196,8.027235,-1.5006,-17.2996,-46.4698,199.31442,-38.774876,-2.795505,-0.15616366,0.39098373,-0.07938916
-1.4431798,5.5411553,7.4913073,-1.7933999,-16.9702,-46.567398,199.17744,-38.51351,-3.231445,-0.40680492,0.37159857,0.017586524
-0.6382792,5.5695868,7.5634327,-1.3908,-17.1898,-47.641,198.98328,-38.125072,-3.4472592,-0.6928024,0.18629058,0.010075612
-0.19460371,5.404686,7.928773,0.0244,-16.6896,-47.9216,198.92628,-37.53448,-3.565679,-0.82679975,0.03650536,-0.11309667
-0.08499416,5.1789575,8.520366,-0.854,-16.226,-48.3974,199.04546,-36.795677,-3.626554,-0.860424,-0.07192822,-0.24281393
-0.14028525,4.5502553,9.240497,-0.3416,-16.1406,-48.8732,199.48795,-35.3293,-3.6509738,-0.62400514,0.033157926,-0.3205044
-0.45108256,4.203096,8.771682,0.26839998,-15.7746,-49.166,199.8375,-33.342808,-3.6218877,-0.36723524,0.3473172,-0.25968432
-0.8774001,4.1306715,7.494749,0.1952,-15.225599,-48.861,199.86531,-32.99142,-4.027185,-0.08813246,0.75099117,-0.04781336
-1.0426749,4.2795606,6.6865563,0.6588,-15.945399,-49.458797,199.57932,-32.917767,-4.575647,0.033407733,0.8791263,0.09166309
-1.1898434,4.6790934,5.6653547,1.8665999,-15.921,-49.9468,198.95865,-33.04589,-5.3458953,0.18319295,0.8811414,0.2563369
-1.3094786,5.058799,5.0397944,2.4644,-16.0186,-50.5324,198.41472,-33.270798,-5.8534546,0.23836733,0.78246707,0.2970224
-1.4083891,5.430648,4.5694838,2.9157999,-17.08,-50.934998,197.72592,-33.641415,-6.3755994,0.24369659,0.5416516,0.2663126
-1.5411925,5.995081,4.797232,3.9894,-17.5436,-50.6544,197.21455,-34.067272,-6.6655126,0.21420252,0.062152375,0.08611734
-1.7311574,5.9968767,5.0259533,4.575,-17.934,-51.7402,197.22064,-34.274902,-6.6710567,0.19676588,-0.09379479,-0.06008729
-1.970428,5.8945246,5.2079124,3.7698,-18.2512,-51.9354,197.39145,-34.443638,-6.6406274,0.15566404,-0.1510176,-0.14915237
-2.366743,5.7809496,5.506664,3.7454,-18.6904,-51.7524,197.50874,-34.5241,-6.625603,0.079056084,-0.140076,-0.15628025
-2.6664674,5.8577886,6.056657,5.1362,-18.8856,-51.7524,197.76845,-34.589546,-6.6102304,0.03803752,-0.15491462,-0.09241252
-2.5534909,6.282086,7.1936035,3.7331998,-19.2638,-52.5454,197.96814,-34.85229,-6.891993,0.08811581,-0.14846957,0.0123905055
-2.3361423,6.461352,7.62875,5.002,-19.9958,-52.46,197.89406,-35.865467,-8.155808,0.19210279,-0.0010991577,0.05049464
-2.2199488,6.541782,7.4993877,5.002,-19.7152,-52.0696,197.86568,-36.03792,-8.1379595,0.23726818,0.095460184,0.06971324
-2.1366754,6.774618,7.1723547,5.185,-20.2764,-52.765,197.8124,-36.370285,-8.2583,0.1978817,0.1332479,0.09271229
-2.0650737,7.1754975,7.4929533,5.6486,-21.3744,-53.667797,197.67924,-36.787224,-8.403991,0.103270866,0.03104288,0.09244583
-1.8608932,7.2865286,7.7991867,5.3436,-21.3866,-53.667797,197.69502,-36.85338,-8.3848295,0.06982982,-0.058072165,0.08468511
-1.3726257,7.3343377,8.129736,6.161,-20.8986,-53.558,197.66751,-36.920498,-8.303558,0.051810298,-0.0786897,0.052010145
-1.1068693,7.382072,8.147618,5.6974,-22.3748,-54.168,197.74341,-36.962,-8.245305,0.014022588,0.016903713,-0.025430514
-1.2357074,7.4306293,8.306309,6.8929996,-22.692,-54.5706,197.84447,-36.96142,-8.285913,-0.048512824,0.09196286,-0.054275077
-1.0217255,7.348628,8.891392,6.8686,-23.1434,-54.6804,197.92616,-36.92226,-8.371065,-0.04131834,0.091812976,-0.024114855
-0.8854057,7.1431007,9.571794,5.7584,-23.4728,-54.778,197.90273,-36.906555,-8.418773,0.04391635,0.19515045,0.056989662
-0.9484031,7.280169,9.625738,6.9296,-24.0462,-54.8878,197.86205,-36.953655,-8.512113,0.13811083,0.34088877,0.19266902
-0.30817866,8.060828,7.9648356,7.3687997,-25.681,-54.436398,197.00298,-37.7379,-8.787604,0.36200592,0.032142036,0.35287958
0.021772271,7.818565,7.668628,8.296,-27.2792,-55.1562,196.87788,-38.16037,-8.499718,0.18221037,-0.46654248,0.1198415
0.023268647,7.181483,8.091953,8.174,-27.9014,-55.0708,197.05644,-38.28932,-8.112219,0.06298507,-0.69759876,-0.057639163
0.17402853,6.6093435,8.44839,7.3322,-28.9018,-54.8024,197.61842,-38.28671,-7.6667,0.03087634,-0.7945245,-0.1820938
0.017133506,6.155418,8.8876505,7.1247997,-29.097,-54.899998,198.3451,-38.22544,-7.2218533,-0.010891654,-0.8126273,-0.2723413
0.10886136,5.721394,9.038935,6.8929996,-29.828999,-55.1196,199.11482,-38.134686,-6.810866,-0.019901415,-0.80025345,-0.2692437
0.27308863,5.5835776,9.017013,6.2708,-30.5,-55.522198,199.72685,-38.02624,-6.387633,-0.0560737,-0.8488162,-0.28669697
0.4739023,5.6117845,9.303344,6.1488,-31.171,-56.217598,200.32607,-37.933746,-6.0940685,-0.09351168,-0.8710825,-0.33909017
0.65877956,5.342736,9.311799,5.612,-31.8664,-55.4612,201.39754,-37.73383,-5.558442,-0.0413683,-0.72103083,-0.43896362
0.5443816,4.831574,8.484378,5.9902,-32.3056,-55.753998,202.35396,-36.95845,-4.551216,0.0039469753,-0.49578676,-0.5673486
0.2662053,4.4605474,7.5858035,5.2948,-32.256798,-55.8516,202.80026,-36.75821,-4.342002,-0.046031393,-0.33660874,-0.6187925
0.14118308,3.9472904,7.1332994,5.1484,-33.3914,-55.4002,203.64713,-36.655746,-4.419488,-0.1576292,-0.27077582,-0.655048
-0.3358616,3.8974612,6.9425116,5.6242,-34.0746,-55.217197,204.47585,-36.46707,-4.561992,-0.20898986,-0.23796764,-0.63304824
-0.7285107,4.4100447,6.561235,5.9291997,-33.891598,-55.4002,205.45088,-36.16644,-4.75134,-0.19949712,-0.1831763,-0.49402145
-0.54138887,4.4366803,6.1914806,6.0878,-34.892,-55.912598,205.85616,-35.95932,-4.8738256,-0.20829038,-0.09519372,-0.3964462
-0.3783587,4.5005007,6.023213,5.7827997,-35.075,-55.7296,206.42415,-35.762604,-5.0164266,-0.16324158,0.0045132083,-0.3951472
-0.40117842,4.5980644,5.7802763,6.8564,-35.746,-55.937,206.93146,-35.618935,-5.22664,-0.06724847,0.081654094,-0.43313476
-0.37828386,4.606369,5.546318,6.7344,-36.2706,-55.753998,207.10605,-35.57057,-5.408182,0.013106623,0.12517075,-0.48253024
-0.3728969,4.488006,5.3400426,7.625,-36.307198,-55.6564,207.66165,-35.563713,-5.730028,0.093694866,0.13571267,-0.5736104
-0.5137059,4.4287496,5.181202,7.0882,-37.2954,-55.290398,208.30693,-35.61583,-6.103799,0.14037576,0.1010892,-0.6683212
0.9792285,5.2772694,5.543026,8.064199,-37.710197,-55.4856,209.04,-35.70484,-6.4877667,0.23746803,-0.05827201,-0.8960633
-0.9891794,4.9877205,5.048698,8.1374,-38.5276,-55.9004,209.48242,-35.804302,-6.768679,0.37319735,-0.050511293,-1.2092234
-2.3621793,5.9876738,4.409671,9.1866,-39.5158,-55.4246,211.05586,-36.068596,-7.4797883,0.27737078,-0.2773375,-1.2617831
-3.033678,5.599589,3.6483145,10.3578,-40.321,-54.8634,212.65652,-36.14039,-8.044306,-0.07689108,-0.30040315,-1.0616864
-4.16217,6.279467,4.247389,9.9552,-40.3698,-55.448997,213.25003,-36.011948,-8.270526,-0.4700398,-0.4455086,-0.8891686
-4.1745152,6.4489317,5.3755064,10.3456,-40.626,-55.6442,214.05714,-35.438824,-8.636754,-0.87767744,-0.4785999,-0.558572
-3.8135145,6.5135007,6.2243257,10.5529995,-40.2844,-55.937,214.41962,-35.854355,-10.394349,-1.1275859,-0.27310738,-0.4133166
-3.170821,6.3644614,7.216124,10.845799,-40.4796,-56.620197,213.87584,-36.5551,-12.749874,-1.4363827,-0.031192765,-0.31797302
-2.9126213,6.1976905,7.8496895,11.0898,-39.5402,-57.474197,213.68588,-35.383366,-12.98536,-1.6227565,-0.019151991,-0.3136763
-2.6735752,6.1038675,8.446968,11.285,-39.7964,-59.035797,213.47003,-33.950813,-13.098201,-1.7588855,-0.39726225,-0.38418892
-2.8237364,6.0745387,8.431256,11.236199,-38.7716,-59.6946,213.96883,-32.328724,-12.9616165,-1.980499,-1.013007,-0.47931603
-3.6052938,6.4430213,8.929325,12.078,-37.759,-61.3294,214.28671,-30.444355,-12.386481,-2.3983955,-1.5714958,-0.43451703
-3.4990509,6.427983,10.1235075,10.2846,-37.5882,-61.524597,214.70517,-28.21962,-11.425766,-2.6306674,-1.3919833,-0.1643907
-3.2356887,5.5972695,11.594894,9.4794,-35.599598,-63.5254,214.78952,-25.859362,-10.454942,-2.7414992,-1.120175,0.18177737
-3.5951183,4.592453,13.563677,8.5278,-34.404,-63.501,214.97266,-23.484001,-9.562241,-2.6964505,-0.58042186,0.47675133
-2.765677,3.3076644,13.516316,7.625,-32.3666,-64.525795,214.1976,-21.295385,-9.099297,-2.3350108,0.37984225,0.84107214
-2.6684127,3.159598,13.1307,8.4911995,-30.8294,-66.3436,212.93448,-19.471092,-9.173587,-1.8118949,1.0040306,1.1656734
-2.1068227,3.290531,12.722414,8.9182,-30.2682,-66.3314,211.26045,-18.171623,-9.657837,-1.2170174,1.1931857,1.367985
-1.8117373,3.6210055,12.423288,9.7112,-30.3536,-66.9048,209.82895,-17.409468,-10.249779,-0.72444487,0.9906742,1.3744301
-1.706991,3.9864955,12.008792,10.089399,-30.866,-66.8194,208.07549,-17.15722,-10.606972,-0.15717955,0.4292877,1.1794295
-1.5828665,4.01964,11.196559,9.5648,-31.500399,-66.6486,206.6886,-17.326918,-10.530272,0.39767858,-0.3590582,0.84272087
-2.4137294,3.9585133,12.069096,9.4916,-33.2206,-65.4164,205.84663,-17.879803,-9.883035,1.0346072,-0.92619026,0.4876763
-1.4897172,3.2152631,11.182793,8.3204,-34.9286,-64.977196,205.76915,-18.911837,-8.972959,1.7571201,-1.0441998,0.19163649
-0.8087164,2.0321536,10.7480955,6.8929996,-37.783398,-63.867,205.64029,-20.528898,-8.11132,2.5746272,-0.88172436,-0.14698736
-0.24794951,0.97391635,10.37041,6.527,-39.2474,-62.7324,205.7106,-22.67649,-7.457631,2.9924235,-0.7100559,-0.40697148
-0.79405195,0.8337059,9.805453,6.3318,-43.8834,-59.718998,206.4823,-24.14003,-6.915948,3.1919208,-0.44657445,-0.46041384
-1.5708208,1.3236195,8.824654,6.5513997,-45.5792,-58.401398,207.18625,-23.709898,-6.648002,3.0312939,0.04746363,-0.020234494
-2.5796027,2.1453543,7.4848733,7.0759997,-49.654,-55.4734,206.83798,-26.257832,-6.715602,2.5957441,0.5385873,0.7114548
-1.4783447,2.4992473,6.8756237,6.9905996,-51.313198,-53.3628,205.76756,-28.522364,-6.847364,1.9176972,0.80450016,1.3700835
0.0010474633,3.134833,6.865149,7.4663997,-54.0582,-50.312798,203.63771,-30.713453,-6.87061,0.85501146,1.0888157,1.5758091
0.46215576,3.7493947,6.919243,6.3928,-55.876,-48.592598,201.99184,-31.599062,-6.986772,0.12420482,1.5410857,1.445076
0.5315876,3.876886,6.392893,5.3557997,-56.6446,-47.2506,199.97823,-31.901606,-7.4900637,-0.38951817,2.0864346,1.2739571
0.24488194,4.073136,5.7112184,6.1243997,-57.1814,-46.3844,197.82976,-31.745552,-8.507962,-0.8338777,2.3007202,1.0545086
-0.6664859,4.578013,5.864971,5.9291997,-57.1204,-46.6772,196.63693,-31.454386,-9.285271,-0.97265464,1.8306139,0.90147585
-1.230096,5.1439424,7.0800285,6.2098,-57.632797,-46.5918,194.5604,-30.717876,-10.343529,-0.72639334,0.7002801,0.6640911
-1.2211925,5.3085437,8.047062,6.3196,-57.2912,-46.7748,193.79762,-30.425789,-10.476591,-0.2787364,-0.03607236,0.38800266
-1.1091888,5.203124,8.354193,5.4168,-57.2912,-46.103798,193.2964,-30.284466,-10.2583065,0.21716692,-0.5405358,0.14640447
-0.9189245,4.767529,7.804125,5.0752,-58.4258,-45.3474,193.47952,-30.531986,-9.754332,0.6787632,-0.77480626,-0.009992342
-0.9471312,4.7070756,7.182979,5.3557997,-58.706398,-44.3714,193.58679,-31.057829,-9.202081,0.7612833,-0.7151853,-0.038187403
-0.95730656,4.9515085,6.900314,5.124,-59.4628,-43.3222,193.59071,-31.458057,-8.871023,0.7158514,-0.64433956,-0.025930129
-1.0423756,5.3106384,6.906898,4.758,-60.829197,-42.09,193.89905,-32.020226,-8.414023,0.6208742,-0.609866,8.4934913E-4
-0.90298814,5.4829464,7.80824,3.7454,-61.0732,-40.931,193.95859,-32.534756,-7.9412374,0.6482699,-0.74383,0.03535624
-0.81664723,5.5655465,7.6702743,2.7206,-61.902798,-40.4552,194.17827,-33.222366,-7.2457356,0.69475096,-0.6209575,-0.07574196
-0.7636007,6.0387754,7.8224554,2.806,-62.0858,-39.100998,194.26508,-33.811325,-6.8465557,0.74323046,-0.42475784,0.040019333
-0.17058687,5.762694,7.451354,2.3424,-63.5254,-37.4784,194.18523,-34.449165,-6.5547886,0.74046594,-0.09937385,0.076707885
-0.020350715,6.2079406,7.106739,2.9157999,-63.940197,-35.831398,194.16115,-35.157345,-6.3450184,0.633781,0.123771824,0.1381608
-0.03688567,6.532729,7.2322845,2.4034,-64.196396,-35.1604,193.71967,-36.390762,-5.627089,0.48446208,0.16499023,0.23425382
-0.0163105,6.76362,7.6045084,2.5742,-64.659996,-34.196598,193.25647,-37.203384,-5.218557,0.3913834,0.08445195,0.24666098
0.14335282,6.692018,8.0971155,2.44,-65.4286,-33.3304,193.12308,-37.44319,-5.158478,0.3834062,-0.09634284,0.1712854
-0.34154785,6.5846534,9.02442,1.6348,-65.6848,-32.6594,192.90916,-37.77444,-4.9615006,0.5365222,-0.308397,-0.17481604
-0.75596917,8.020875,9.5971575,1.9153999,-65.88,-31.5858,193.00446,-38.211033,-4.832864,0.5652835,-0.3228193,-0.2264598
0.16961423,7.101277,9.789666,1.6958,-66.246,-30.0364,193.0429,-38.661533,-4.8042808,0.45293626,0.577674,-0.008160413
0.8144775,7.073744,9.340754,3.0744,-66.612,-29.6582,192.6994,-39.063686,-5.230101,0.29577336,1.4686413,0.051677067
1.7748517,8.04347,7.884181,3.172,-66.7828,-28.0966,191.59094,-39.370094,-6.3103085,0.043666538,2.3467183,-0.11767649
1.1559505,8.89618,7.1773677,3.7331998,-67.3928,-26.754599,190.24966,-39.548294,-7.9039483,-0.18882197,2.1942353,-0.5386372
-1.3193548,8.684368,7.769708,4.7458,-67.2952,-27.4256,189.27864,-39.513824,-9.595051,-0.32083747,1.1553646,-1.0009663
-2.7650785,7.33127,8.862062,6.6368,-67.1366,-26.0592,189.22482,-39.26492,-10.940393,-0.2450289,0.28005207,-1.0001836
-3.3909378,5.944728,9.969381,7.1492,-66.7706,-26.242199,189.55315,-38.974655,-11.637468,0.017503254,-0.18149425,-0.696866
-2.9078329,4.744784,10.29604,7.442,-66.9902,-25.7664,189.88814,-38.966682,-11.803349,0.58809936,-0.45704976,-0.09634284
-2.294917,4.724658,10.202741,6.3318,-67.160995,-24.692799,190.11655,-39.214886,-11.669604,1.0245149,-0.6623424,0.23418722
-1.7561469,5.008221,9.694647,7.0271997,-67.2342,-23.326399,190.16635,-39.97833,-11.149773,1.3286818,-0.77928615,0.41166788
-0.5383213,6.163274,7.3740664,5.3192,-67.3806,-21.289,190.37833,-41.65779,-9.46706,1.5822542,-1.1948344,0.5309765
-0.23373394,6.7513494,6.6885767,4.4774,-68.015,-19.2638,190.5875,-42.941734,-8.314632,1.4309868,-1.2824672,0.40607217
-0.13654432,7.0197244,6.012813,4.148,-68.5762,-18.0072,190.76608,-43.765324,-7.511465,1.1793463,-1.2295078,0.22257943
-0.09756372,7.0228667,5.47928,3.7575998,-68.417595,-16.4456,191.36406,-44.715797,-6.5926285,0.83559304,-1.1205246,0.03612232
-0.12883797,6.8958993,5.226168,3.4648,-68.1858,-15.2744,191.65291,-45.131306,-6.1328664,0.51728696,-0.969607,-0.094993874
-0.076539636,6.641665,5.046977,2.6474,-68.442,-14.212999,192.07785,-45.37037,-5.7900085,0.11654402,-0.68480855,-0.19848123
-0.093972415,6.503026,5.0651584,4.0504,-68.3566,-13.908,192.44792,-45.405365,-5.5109663,-0.30936295,-0.29144335,-0.25945118
-0.35628715,6.6537857,5.3190184,3.233,-68.710396,-13.1394,192.61978,-45.105377,-5.5002007,-0.6134133,0.050894335,-0.25988418
-0.5220856,6.8578916,5.9415855,4.453,-68.1736,-14.1032,192.74055,-44.57275,-5.6872096,-0.7182329,0.237951,-0.22604345
-0.4563947,6.7203746,6.6317143,3.3672,-67.832,-13.6152,192.5994,-43.97138,-5.9636345,-0.5861675,0.25512117,-0.18937156
-0.37416884,6.564452,6.7571106,3.7575998,-68.1126,-14.0056,192.42592,-43.49643,-6.2287045,-0.32418492,0.21868242,-0.17458288
-0.46095866,6.5028014,6.364686,4.2822,-67.649,-14.091,192.27112,-43.292107,-6.4548817,0.038303982,0.13969295,-0.1733838
-0.6859388,6.417658,5.565995,3.965,-67.8808,-13.2248,192.31337,-43.385754,-6.623703,0.33266175,0.0026979325,-0.17296745
-0.97870475,6.441899,4.817882,4.4652,-67.941795,-13.1272,192.29468,-43.70016,-6.699664,0.49387154,-0.1712854,-0.17030284
-1.1387422,6.500482,4.3922377,4.6848,-67.2342,-11.8462,192.37337,-44.114605,-6.676636,0.4963863,-0.28329957,-0.16625594
-1.1601404,6.5337763,4.3572974,4.4895997,-67.160995,-10.3822,192.50177,-44.512974,-6.609345,0.39341518,-0.24884264,-0.17001972
-1.1167455,6.44564,4.3555765,5.0752,-67.4416,-9.601399,192.69022,-44.905457,-6.5611463,0.23103963,-0.18142764,-0.17541558
-1.177199,6.422895,4.5007253,4.8922,-67.0268,-9.894199,192.83195,-45.023758,-6.5617666,0.09827469,-0.102304935,-0.15852852
-0.94331545,6.6120367,5.156886,4.7702,-67.4172,-8.723,192.84972,-45.108013,-6.682691,-0.011691041,0.23063993,-0.0889485
-1.5085715,7.360599,5.1268835,5.5632,-67.5026,-7.8568,192.56412,-45.128345,-6.9678535,-0.042633995,0.25593722,-0.06506681
-1.4665982,7.6846395,5.4548893,5.1605997,-67.4294,-7.7591996,192.24712,-45.69072,-7.2716246,0.0019485069,0.19953044,0.02503082
-1.1849802,7.3969607,5.4726214,5.2704,-67.2098,-7.1614,191.93144,-46.02302,-7.3942266,0.04406623,0.17178503,0.096309535
-1.0710312,7.4268885,5.324555,4.4652,-67.3318,-6.9783998,191.61293,-46.14853,-7.42328,0.04789663,0.18988782,0.1673884
-0.8694693,7.7956705,5.474716,5.0629997,-67.307396,-7.0759997,191.45003,-46.338028,-7.398516,1.16577336E-4,0.09241252,0.2027946
-0.7269395,8.0723505,5.7727194,4.3676,-67.1732,-5.612,190.93321,-48.014626,-6.782645,-0.040335756,-0.07792362,0.1488193
-0.52275896,8.116793,6.3096194,4.5506,-67.6612,-5.1362,190.7892,-48.040276,-6.602625,-0.06403426,-0.32535067,0.056956355
-0.63880295,8.111181,7.1588874,3.6599998,-67.4172,-4.7336,191.01816,-47.958504,-6.3645325,-0.07669123,-0.5468809,-0.060237173
-1.3880384,8.113351,7.7084317,4.0626,-67.1732,-5.5144,191.1445,-47.88362,-6.1858196,-0.08346937,-0.26361465,-0.07809016
-1.3701568,8.1102085,8.106318,4.758,-67.1976,-4.8312,191.23358,-47.742126,-6.0975394,-0.15569736,0.1064018,-0.041684724
-1.9633203,8.369531,8.524032,4.148,-67.4172,-3.5623999,190.99309,-47.629467,-6.247171,-0.08300306,0.63271517,-0.0040802066
-2.1656303,8.261417,7.5239286,4.3676,-67.0634,-3.6599998,190.50014,-47.641064,-6.6778736,0.024747703,1.1348803,0.11815946
-1.846977,8.142381,6.613608,4.5628,-66.9658,-3.6478,189.30986,-47.778244,-7.422567,-0.09635949,1.0390038,0.27768722
-1.5976807,8.24376,6.386159,3.8674,-66.843796,-2.5864,188.39627,-47.790314,-7.8215795,-0.2622324,0.6266032,0.3008528
-1.9179052,8.390031,7.1339726,3.172,-66.8926,-2.9768,187.73605,-47.635925,-7.9745193,-0.41323334,0.13279824,0.27528906
-1.9963901,7.800758,7.9230866,3.4648,-66.9414,-2.4888,187.30019,-47.21883,-7.841756,-0.42775553,-0.12270597,0.27993548
-1.5637878,6.766164,8.984541,3.0744,-66.8804,-2.5864,187.12035,-46.863956,-7.578098,-0.34748372,-0.20106259,0.29285893
-1.1848305,6.186692,9.307309,3.4891999,-66.429,-2.7694,187.06607,-46.57245,-7.2915354,-0.23243855,-0.07061256,0.27683786
-1.1407623,6.0645127,8.805275,2.9889998,-66.4412,-2.5742,186.81136,-46.398262,-7.1194534,-0.14788668,0.1878727,0.21675058
-1.2984055,6.2897177,7.8692174,1.9886,-66.5754,-2.6718,186.44902,-46.14635,-7.1379876,-0.21953177,0.4132833,0.15916137
-1.2253823,6.3156047,7.227272,1.3908,-66.2948,-1.8909999,185.98013,-45.88141,-7.3179607,-0.44351014,0.59109706,0.11076512
-1.0489596,6.201656,7.1456447,1.4884,-66.5998,-2.5742,185.55164,-45.53676,-7.6027026,-0.6012892,0.62841845,0.08080474
-0.84717333,5.733589,7.4736505,2.3912,-66.368,-2.379,184.95946,-44.832687,-7.98224,-0.6600442,0.30831373,0.035372894
-0.99778354,5.440524,7.716811,1.9031999,-66.185,-3.4404,184.77057,-43.867073,-7.9967585,-0.52528083,-0.0042633996,0.044665772
-1.1472715,5.153145,7.579968,2.0008,-66.3436,-3.2574,184.7222,-42.967617,-7.875516,-0.30356738,-0.18620731,0.094527565
-1.1782465,4.9736547,7.3162313,1.6836,-66.538795,-3.1598,184.7449,-42.595146,-7.71144,-0.1689372,-0.15205015,0.18089472
-0.9935937,4.8321724,7.073519,1.9886,-66.5144,-3.0621998,184.70444,-42.452457,-7.5173426,-0.029793836,0.04396631,0.30581567
-0.686687,5.0419645,6.690073,1.5128,-65.8068,-2.7572,184.44962,-42.45686,-7.3751497,0.11487863,0.27335718,0.37762728
-0.46223056,5.346477,5.839832,0.109799996,-66.0386,-2.5742,183.8948,-42.67922,-7.3208885,0.22371191,0.3404891,0.3681179
-0.5385457,5.781174,5.111845,1.3054,-66.1484,-2.379,183.45795,-42.93211,-7.3186173,0.24129842,0.3017188,0.323652
-0.6725462,6.1109753,4.7370777,0.0244,-65.5506,-1.586,183.0855,-43.188602,-7.3086104,0.19015428,0.14920233,0.2656964
-0.86857146,6.2748284,4.6582937,0.109799996,-65.9776,-1.403,182.8209,-43.388813,-7.24016,0.11321325,-0.009775843,0.19037078
-1.1139023,6.1748705,4.8449664,0.2074,-65.916595,-0.427,182.67273,-43.52209,-7.0747337,-0.023448698,-0.11271363,0.15233327
-1.1439795,6.1262383,5.1396775,-1.3786,-65.7336,-0.7198,182.62593,-43.509403,-6.918432,-0.13123277,-0.113762826,0.15183365
-0.98102415,6.171803,5.794417,-0.3904,-65.9776,-1.0126,182.5802,-43.403587,-6.76278,-0.19604976,-0.0827366,0.14339012
-0.8451532,6.1847467,6.21011,-0.305,-66.2704,-0.0488,182.53616,-43.241405,-6.64163,-0.1974487,0.0067281774,0.09709226
-0.89094234,6.3318405,6.568792,-1.1223999,-66.5998,-0.43919998,182.45135,-43.092014,-6.6155972,-0.13478005,0.13456355,0.053858727
-0.8753052,6.533851,6.785766,-0.6954,-66.1362,-0.52459997,182.36385,-43.028133,-6.6532683,-0.03177565,0.20880666,0.021217074
-0.89221424,6.5873466,6.580014,-1.5006,-66.0386,0.45139998,182.23184,-43.025997,-6.774884,0.119658306,0.22261274,-0.036272205
-1.1752537,6.6274495,6.1927524,-0.5002,-66.1728,0.45139998,182.11528,-43.142548,-6.9276986,0.2019619,0.11399598,-0.05855513
-1.3910311,6.7014456,5.9002857,-0.4148,-66.3314,0.6344,182.07661,-43.31487,-7.025628,0.19436772,-0.0074942573,-0.03595578
-1.4735563,6.8206315,6.0365305,-0.90279996,-66.1362,1.3176,182.10388,-43.46141,-7.011833,0.07952239,-0.16600612,0.05920463
-1.0791864,7.0364094,6.3776298,-0.8174,-66.2582,2.2935998,182.17535,-43.519432,-6.8040133,-0.048179746,-0.24494563,0.12896784
-0.65436524,7.373842,6.525322,-1.0004,-65.8922,2.5986,182.24329,-43.490585,-6.5487256,-0.1642075,-0.28616405,0.11076512
-0.36384383,7.8493156,6.679673,-0.61,-66.246,2.2935998,182.3358,-43.425396,-6.2392488,-0.33281162,-0.28921172,0.040535603
-0.3075801,8.255956,7.140108,-1.1101999,-66.124,1.8055999,182.4705,-43.145496,-6.021486,-0.4519037,-0.23713495,0.01368951
-0.27503392,8.637831,7.9897504,-0.427,-66.4168,2.1959999,182.57637,-42.741226,-5.8795347,-0.49417132,-0.05962098,0.01702029
0.032770637,8.534132,8.080132,-1.1101999,-66.1972,1.9031999,182.58893,-42.600906,-5.8563623,-0.46119657,0.01970157,0.005978752
0.39758712,8.136919,8.036886,-0.91499996,-66.5022,1.22,182.97556,-41.56005,-5.753311,-0.5991575,-0.32290256,-0.2488926
-0.040327337,8.067562,8.680253,-0.3294,-66.685196,0.6344,183.33447,-40.987823,-5.679562,-0.7392835,-0.33899024,-0.3102789
-0.18412907,7.4662433,9.619229,0.46359998,-66.9902,0.7198,183.71353,-40.310947,-5.6360483,-0.759951,-0.29197627,-0.3126604
-0.2363526,7.0271316,10.0964985,0.1586,-67.1366,0.0366,184.08203,-39.622364,-5.6040545,-0.7382343,-0.3319123,-0.3117611
-0.11432313,6.8228016,10.58903,0.8662,-66.8072,-0.92719996,184.45737,-38.95904,-5.5471544,-0.66942036,-0.30021995,-0.27099234
0.11679215,6.5206084,10.680384,0.46359998,-66.8926,-0.6344,184.78897,-38.364567,-5.482492,-0.56914717,-0.27062595,-0.23068988
0.19677345,6.3583264,10.403255,0.96379995,-67.002396,-1.3176,185.08698,-37.856976,-5.40581,-0.49548697,-0.3289646,-0.21655072
0.59593177,6.2215576,10.410962,1.2688,-66.7828,-0.92719996,185.42436,-37.40426,-5.2669864,-0.43230206,-0.45495138,-0.25533766
0.7539491,5.7397995,10.2966385,1.3908,-66.368,-1.5006,185.85568,-37.000423,-5.071963,-0.3367253,-0.51778656,-0.35286292
0.52664953,5.384934,9.863138,1.6836,-66.526596,-1.403,186.3616,-36.661026,-4.8895817,-0.2607835,-0.47976568,-0.39642954
0.113500126,5.2763715,9.37936,1.8055999,-65.88,-1.0979999,186.87167,-36.385906,-4.7553067,-0.20520942,-0.39154994,-0.37461293
0.17410335,5.1654153,9.122208,3.1109998,-65.9776,-2.2691998,187.32361,-36.145138,-4.6501937,-0.15061791,-0.3400561,-0.3464512
0.19198506,5.021913,8.836101,3.0988,-66.0996,-1.3908,187.87318,-35.721714,-4.3585343,-0.017236792,-0.25592056,-0.33729154
0.073696524,4.9015293,8.356438,3.1232,-65.575,-1.5738,188.13344,-35.2549,-3.9340432,0.1034041,-0.16860414,-0.3194552
-0.12951134,4.882002,7.6379523,3.5258,-65.5262,-0.89059997,188.43634,-35.285748,-3.9354062,0.24541195,-0.08929824,-0.28901187
-0.39960724,4.820426,6.954782,3.1109998,-65.8068,-0.8052,188.67665,-35.482285,-4.015086,0.34510222,-0.042617343,-0.2500917
-0.68219787,4.9020534,6.2556,3.5014,-65.8434,-0.21959999,188.85411,-35.784794,-4.107059,0.4477902,-0.025746936,-0.1755155
-0.3381062,4.9972973,5.9040265,4.1236,-65.2212,0.7686,188.94472,-36.04221,-4.149249,0.5619361,-0.1089665,-0.14965199
-0.20530279,5.024831,5.441796,4.331,-65.209,0.8662,189.11336,-36.523624,-4.144713,0.6574296,-0.2000134,-0.21102163
-0.3378069,5.1658645,4.9456725,4.6359997,-64.965,1.8421999,189.3754,-37.086864,-4.1122103,0.6929024,-0.26491368,-0.27640486
-0.29807812,5.1848683,4.6761003,4.0382,-64.843,3.0133998,189.59506,-37.4728,-4.085177,0.65561426,-0.3203212,-0.3450356
-0.6123919,5.31842,4.654852,5.7339997,-64.672195,2.928,189.9996,-38.010883,-4.0552087,0.52399844,-0.2913767,-0.45293626
-1.1397148,5.513173,4.6756516,4.9532,-64.0988,4.4042,190.44559,-38.431324,-4.1109185,0.32764894,-0.15911141,-0.45794907
-1.3432968,5.6641574,4.8799815,5.5632,-63.940197,5.0874,190.9342,-38.732456,-4.313492,0.07997205,-0.06583288,-0.382357
-1.398962,5.928343,5.405434,6.3561997,-64.0134,4.7946,191.20728,-38.76054,-4.472698,-0.106318526,-0.06413419,-0.26264873
-1.1287913,6.2633066,6.0675807,5.673,-63.769398,4.7946,191.41388,-38.663708,-4.572261,-0.16515677,-0.104803026,-0.19058728
-0.6379799,6.3761334,6.916325,6.771,-63.696198,5.3802,191.59985,-38.516083,-4.5930834,-0.104902945,-0.15229996,-0.18823908
-0.5645827,6.452149,7.179388,7.0882,-63.305798,5.6851997,191.80556,-38.421013,-4.5895143,-0.0021316998,-0.14392304,-0.19428445
-0.69087684,6.5758247,7.251962,6.4537997,-64.1598,5.185,192.00735,-38.418907,-4.5951395,0.048079822,-0.094760716,-0.18206048
-0.90785134,6.674062,7.3380036,7.3687997,-63.7572,5.3802,192.16974,-38.46314,-4.632314,0.045864854,-0.0110915005,-0.14943549
-1.0511293,6.746262,7.298275,6.9905996,-63.1716,6.5636,192.23593,-38.49091,-4.6842704,0.007144525,0.070446014,-0.100423045
-1.3712043,6.9371996,7.3867106,7.4908,-63.0252,5.6974,192.25922,-38.502422,-4.7881417,-0.07795693,0.11499521,-0.020417687
-1.5070003,7.117139,7.608249,7.3199997,-62.305397,6.0024,192.20865,-38.440598,-4.873475,-0.16094333,0.1042701,0.056706548
-1.6257378,7.3368816,8.136844,7.8079996,-62.7202,6.0878,192.09856,-38.3015,-4.9104896,-0.23222205,0.14062557,0.14530532
-1.6730232,7.4495587,8.771532,7.3199997,-62.2322,7.2711997,191.90213,-38.11991,-4.9357915,-0.24143165,0.24046573,0.23964968
-1.6547675,7.5327573,9.448642,7.1247997,-62.1102,6.3928,191.70229,-38.00563,-4.9677286,-0.14635451,0.45531777,0.3061654
-1.3471874,7.2455277,8.724995,7.1247997,-62.1102,6.3928,191.23581,-37.942524,-5.137393,0.0697299,0.7286416,0.3455019
-1.3834745,7.139435,7.892411,5.7339997,-62.0248,7.4663997,190.6359,-38.052654,-5.426407,0.07557542,0.5748595,0.35354576
-1.1378443,7.219865,7.2723126,5.551,-61.7198,6.7953997,190.12071,-38.15198,-5.5748796,-0.07134533,0.21786638,0.39378157
-1.4345009,7.663166,7.652916,4.941,-61.8052,7.1735997,189.80447,-38.115757,-5.4408274,-0.4307699,-0.38264012,0.35469487
-1.6765398,7.4928784,9.123704,4.575,-60.902397,7.7836,189.77083,-37.750828,-4.9961305,-0.64908594,-0.6584621,0.3286315
-1.514557,6.8141975,10.278382,4.4895997,-60.816998,6.2219996,189.88768,-37.185608,-4.3893056,-0.70439357,-0.66429096,0.30098602
-1.2728924,6.018574,11.1653595,4.6848,-60.829197,5.8315997,189.99985,-36.575253,-3.8258367,-0.6365122,-0.4076543,0.27463955
-1.1194389,5.4999304,11.225514,3.9894,-60.9512,5.8315997,190.00354,-36.20709,-3.5583804,-0.525464,-0.14342342,0.26046708
-1.1123312,5.224522,10.820519,4.3066,-60.499798,5.6486,189.89088,-35.7525,-3.3408234,-0.39151666,0.0654665,0.24168147
-1.2146084,5.2293854,10.161441,3.9162,-60.0606,5.9536,189.69116,-35.417492,-3.2694557,-0.28399903,0.1042701,0.22827508
-1.2445359,5.2334256,9.579576,3.5258,-60.036198,5.1728,189.48491,-35.173573,-3.2322297,-0.24426283,0.05783901,0.21538495
-1.0543466,5.02715,9.070732,4.1114,-60.267998,5.2581997,189.42375,-35.10268,-3.2141414,-0.25192362,-0.03224196,0.20141232
-0.74998367,4.7834654,8.840141,3.5502,-59.413998,5.185,189.22517,-34.69554,-3.0258477,-0.2836493,-0.12104058,0.16580628
-0.5356278,4.569334,8.680253,4.1724,-58.926,5.3924,189.18794,-34.42271,-2.9354832,-0.25588724,-0.02912768,0.13492994
-0.38232407,4.3026795,8.428937,3.0621998,-59.1578,5.3802,189.11894,-33.870346,-2.8517094,-0.18980455,0.13433039,0.11347971
-0.28984803,4.093561,7.894132,2.5864,-58.7674,4.8068,188.96829,-33.6842,-2.9031615,-0.067065276,0.40365735,0.086616956
-0.36616322,3.937115,7.0159836,2.6962,-58.499,4.7214,188.70502,-33.64212,-3.1613684,0.062585376,0.68359286,0.07276091
-0.5303905,3.89589,5.9742813,2.501,-58.401398,5.0141997,188.3247,-33.713444,-3.6149359,0.12916769,0.85286313,0.07928924
-0.79876554,3.9654713,5.116409,2.806,-57.9988,5.6974,187.85881,-33.85556,-4.184153,0.12821841,0.8899347,0.11061524
-0.9718214,4.161197,4.5744214,2.7206,-57.7426,5.5144,187.35599,-34.01221,-4.75753,0.092995405,0.8006864,0.15389873
-1.2006922,4.4023385,4.3506384,3.0377998,-57.279,5.6242,186.86684,-34.148247,-5.248675,0.052692953,0.6440398,0.1673884
-1.3679122,4.570082,4.452542,1.7324,-57.400997,6.1,186.45692,-34.2481,-5.5996046,0.032275267,0.42164356,0.17748067
-1.3741221,4.6013565,4.662558,2.2447999,-57.156998,5.3314,186.14995,-34.32635,-5.783789,0.03565601,0.17438304,0.1869734
-1.4039749,4.699294,4.798205,1.8665999,-56.6568,6.5148,185.95584,-34.395897,-5.792061,0.032591693,-0.03607236,0.18745635
-1.3913305,4.8439937,4.9675198,1.9642,-56.766598,6.2098,185.87985,-34.433075,-5.718264,-0.003847052,-0.15936121,0.18680686
-1.3357401,4.945972,5.176788,1.7811999,-56.242,6.1243997,185.82195,-34.447983,-5.525363,-0.07147856,-0.21017228,0.18589088
-1.1876737,5.016152,5.500454,1.0857999,-56.2786,6.1243997,185.79404,-34.38693,-5.294896,-0.19869775,-0.2289912,0.1755155
-1.0482862,5.0506434,5.913678,1.6226,-55.448997,6.0512,185.77707,-34.228992,-5.058779,-0.27683786,-0.2024282,0.17005302
-0.88952076,5.123517,6.439355,1.0004,-55.827198,6.1366,185.74379,-33.993454,-4.8480654,-0.333611,-0.1377944,0.17231795
-0.75971013,5.4015436,6.880487,0.43919998,-54.8634,6.4537997,185.70448,-33.81337,-4.7324677,-0.3326784,-0.07161179,0.15886159
-0.7647978,5.841179,7.1969705,1.4518,-54.6438,6.3561997,185.62396,-33.54122,-4.610738,-0.28434876,-0.021433575,0.11204747
-0.6099977,6.1331964,7.406912,1.3542,-54.668198,5.9658,185.55902,-33.34628,-4.5372043,-0.23713495,-0.14432274,0.024231432
-0.36496612,6.207342,7.678953,1.5616,-54.509598,5.49,185.62012,-33.41308,-4.285039,-0.23703502,-0.32153693,-0.07750727
-0.35247138,6.3594484,8.070405,1.2688,-54.131397,6.0755997,185.85928,-33.23252,-4.0504656,-0.29395807,-0.49705243,-0.17984551
-0.60700494,6.5675945,8.364817,1.1834,-53.899597,5.5022,186.10367,-33.04626,-3.866537,-0.3977119,-0.5926625,-0.23535298
-0.8369979,6.680496,8.824578,1.4762,-54.0582,5.7827997,186.54346,-32.672844,-3.551058,-0.5529096,-0.61411273,-0.2309064
-0.8510639,6.6076975,9.837326,2.2935998,-53.5946,5.3192,186.83723,-32.33869,-3.3304079,-0.718183,-0.4982182,-0.14019257
-0.38621467,6.488885,10.8129635,2.5986,-53.5336,4.5383997,187.24416,-31.514238,-2.9579554,-0.6896715,-0.14623794,-0.0051127486
0.07377134,6.1847467,10.354698,2.1106,-53.314,4.2455997,187.30714,-31.11167,-2.8704574,-0.6527498,-0.08301972,-0.002298239
0.38150108,6.398205,10.025046,2.2326,-53.033398,2.6962,187.37967,-30.342697,-2.7661889,-0.805616,-0.17693108,-0.080371745
0.39167643,6.5872717,10.372206,2.3424,-52.704,2.2203999,187.53636,-29.604343,-2.6597323,-1.0630853,-0.22684284,-0.17857982
0.27802667,6.4375596,11.519253,2.135,-53.0212,1.4274,187.7793,-28.653141,-2.568156,-1.2178501,-0.22522742,-0.27803695
0.30211833,5.7846904,12.948591,2.1594,-52.5088,1.0491999,187.98285,-27.952068,-2.52208,-1.1810949,-0.34307045,-0.36104
0.31700727,5.389348,13.939865,2.5742,-52.277,0.183,188.37596,-26.917747,-2.405818,-1.0261803,-0.39366502,-0.39273238
0.362946,4.7551837,14.702792,3.172,-52.106197,-0.5002,188.82396,-26.080826,-2.2379053,-0.6458884,-0.4330848,-0.3578591
0.5900959,4.172046,14.467637,3.294,-51.8988,-1.6592,189.24174,-25.582813,-2.0231652,-0.20479307,-0.42605686,-0.2573861
0.8656536,3.9371898,13.682564,3.4038,-51.6182,-1.5616,189.57446,-25.454515,-1.7681837,0.17235126,-0.42950422,-0.15274961
1.2332383,3.857508,12.355652,3.5258,-51.1912,-2.0374,189.83722,-25.628735,-1.478954,0.427589,-0.40194198,-0.11059858
1.4315829,3.7467012,10.615292,3.9528,-50.4104,-1.1345999,190.0747,-25.999006,-1.2076199,0.5556409,-0.33436045,-0.18497492
1.3706805,3.6210804,9.528174,3.4404,-50.569,-1.8299999,190.34549,-26.409872,-0.94828695,0.5430006,-0.2599175,-0.27943587
1.1376199,3.3334022,8.226103,3.7575998,-50.3494,-1.4274,190.65627,-26.035076,0.48750013,0.42419162,-0.08729977,-0.40492305
0.90066874,3.1143327,7.504251,4.3919997,-49.4344,-1.3054,190.88358,-26.27981,0.45093498,0.30007005,0.04947875,-0.45633364
0.6593781,2.8990042,6.914978,4.1846,-49.7272,-1.8055999,191.21368,-26.545057,0.2662129,0.18201053,0.19638285,-0.47431988
0.4388123,2.7614872,6.3995514,4.0992,-49.373398,-1.5982,191.4928,-26.689245,-0.063343614,0.08914835,0.33151263,-0.46001416
0.16684593,2.6714053,5.852626,4.9776,-49.605198,-1.708,191.70087,-26.744562,-0.5001696,0.02358193,0.40595558,-0.4160645
0.0032920274,2.6452937,5.4821234,5.4045997,-49.2636,-2.4766,191.8062,-26.754171,-0.8092162,0.008326952,0.38079154,-0.3674018
-0.044816464,2.7486932,5.2748003,4.7092,-49.0196,-2.1715999,191.9407,-26.762482,-1.2296494,0.03850383,0.28916174,-0.33577603
0.07070377,2.8337622,5.051092,5.3314,-48.5682,-2.5498,192.10405,-26.81023,-1.5508379,0.12192324,0.13203216,-0.37236467
0.1512088,2.9697828,4.659715,5.7218,-48.6414,-2.5498,192.36331,-26.933348,-1.7701979,0.19843128,0.009192956,-0.45748276
-0.06860884,3.1665561,4.1555114,6.2464,-47.970398,-2.2447999,192.72034,-27.108704,-1.9507177,0.18985452,-0.008227029,-0.5043135
-0.26852468,3.3028011,3.9705591,6.3318,-48.3364,-2.5498,192.9784,-27.218592,-2.077712,0.12134035,-0.021133805,-0.51210755
-0.3812018,3.505186,3.892523,6.7465997,-48.0802,-3.0256,193.3799,-27.325718,-2.2589633,-0.0048629404,-0.11133135,-0.54759705
-0.5445312,3.932252,4.150199,7.1858,-47.1042,-3.294,193.84496,-27.321527,-2.3909924,-0.17877966,-0.19948047,-0.6280854
-0.6593781,4.1564837,4.425607,7.2834,-47.1774,-3.0988,194.40392,-27.16306,-2.4955354,-0.37171516,-0.21418586,-0.7142027
-0.62728083,4.222624,4.788852,8.113,-46.652798,-4.0626,194.82307,-26.944075,-2.5795155,-0.6657898,-0.14875267,-0.8060656
-0.6370821,4.3176436,5.5481133,7.7226,-46.335598,-4.453,195.71277,-26.15587,-2.8646908,-0.9985348,0.032575037,-0.8840392
-0.6510732,4.38917,6.622736,8.9304,-46.3112,-5.0264,196.37103,-25.232641,-3.2664943,-1.2717755,0.2695268,-0.94722414
-0.7707085,4.4612956,7.6127386,9.6624,-45.4694,-6.2708,196.79486,-24.488579,-3.6410217,-1.3997607,0.44938898,-1.0035644
-1.2406454,4.595296,8.655338,9.6868,-45.0668,-7.0516,197.4194,-23.278776,-4.3591714,-1.3958137,0.6617429,-1.0442165
-1.7797897,4.563498,9.027786,10.5042,-44.627598,-8.0032,198.01555,-22.104094,-5.2650175,-1.2743901,0.8022186,-1.0165876
-2.2956653,4.5886374,9.226206,11.0288,-44.1518,-9.2598,198.56535,-21.015316,-6.25864,-1.1642911,0.7459617,-0.936982
-2.8266544,4.708422,9.5206175,11.9316,-43.981,-10.1382,199.08238,-20.002607,-7.0967,-1.043667,0.45729956,-0.77029306
-3.1213655,4.721665,9.704148,11.8706,-43.127,-10.6994,199.40532,-19.380894,-7.4831223,-0.9751361,0.09492726,-0.60448676
-3.1717186,4.7016134,10.148048,12.7978,-42.578,-11.370399,199.86914,-18.49891,-7.7117615,-0.9645442,-0.35416195,-0.44870615
-3.181146,4.646547,11.163264,12.1146,-42.2608,-11.3582,200.32574,-17.62377,-7.467897,-0.97446996,-0.73843414,-0.28992784
-3.1578023,4.474763,12.365453,12.2,-42.517,-12.9198,200.60553,-17.04026,-7.120321,-0.90312463,-0.7523235,-0.1394598
-3.0753522,4.0455275,12.480674,12.8466,-41.5654,-13.8714,200.97627,-15.998642,-6.415513,-0.7507747,-0.41448238,0.013373085
-3.152116,3.73069,11.987543,12.2976,-40.577198,-14.932799,201.02069,-15.359303,-6.1252003,-0.77269125,-0.20825708,0.15786237
-3.103035,3.6557214,12.020464,12.505,-40.3698,-15.9942,200.9583,-14.922318,-5.997125,-0.9230094,-0.18594085,0.2834328
-3.2662897,3.4546087,13.317672,12.505,-40.382,-16.1894,200.6676,-13.849153,-5.7115855,-1.1558976,-0.3015689,0.44937232
-3.3918357,3.1640124,14.555848,11.8218,-40.0282,-17.3484,200.34584,-12.913323,-5.384659,-1.0280622,-0.3560272,0.5590549
-3.2980127,2.6098294,15.0513735,11.6388,-39.9062,-18.226799,200.07204,-12.367183,-5.131222,-0.6614265,-0.28323296,0.6736171
-3.2398787,2.2213702,14.403218,10.736,-39.9916,-18.91,199.55408,-11.872625,-4.794965,-0.14998506,-0.21371956,0.7934253
-3.2200518,2.280926,13.05244,11.651,-39.6134,-19.3858,198.9206,-11.801938,-4.494157,0.14542189,-0.22562711,0.9217437
-2.9058127,2.3410804,12.154689,9.8454,-39.9184,-20.0812,198.18741,-11.969364,-4.1562576,0.13881029,-0.3249843,1.018686
-2.505607,2.3475149,12.080843,10.4553995,-39.6988,-19.8738,197.39183,-12.128875,-3.7204375,0.033757467,-0.3758953,1.0451324
-2.09343,2.2994812,12.439524,8.967,-39.528,-20.2642,196.85483,-12.175681,-3.3976715,-0.034007274,-0.39616308,1.0321923
-1.6778865,2.1746833,12.843021,9.5648,-39.589,-20.2642,196.32599,-12.187173,-3.0641026,0.0052792877,-0.40827048,0.9928225
-1.3987375,2.0530279,12.952257,8.6498,-39.711,-20.178799,195.8144,-12.199972,-2.7245343,0.08561772,-0.40395713,0.9633118
-1.0418519,1.8670284,12.879683,7.9666,-39.589,-20.557,195.32532,-12.255794,-2.388491,0.23551953,-0.38520482,0.91055226
-0.80804306,1.6922517,12.630386,8.161799,-39.808598,-21.5452,194.86003,-12.387654,-2.0641725,0.40680492,-0.33432713,0.853063
-0.62817866,1.4462475,11.877859,7.3687997,-39.3938,-21.3378,194.21289,-12.759379,-1.6417679,0.6779638,-0.16587289,0.78268355
-0.5844845,1.2568063,10.910152,6.1731997,-39.576797,-22.021,193.58987,-13.350931,-1.3738277,0.87984246,0.06325153,0.76051724
-0.49200845,1.1055975,9.745748,6.7465997,-40.040398,-21.35,193.15863,-13.756253,-1.343073,1.0357397,0.3309797,0.76716214
-0.4540753,1.0021979,8.514679,5.7339997,-40.3332,-21.069399,192.44804,-13.920983,-1.6342189,1.1351634,0.6055526,0.7850984
-0.4006547,0.97975224,7.391424,6.6246,-40.577198,-21.3622,191.92685,-14.5739565,-1.8688489,1.183643,0.83859074,0.8068484
-0.3995324,1.0322751,6.1885624,5.7096,-40.931,-20.5936,191.07123,-15.599993,-2.3931801,1.1819942,1.0661497,0.8203547
-0.46567222,1.1204864,5.208361,5.185,-41.5044,-19.154,190.14436,-16.633488,-3.0813613,1.1050866,1.2067419,0.8083472
-0.6418705,1.2133366,4.4862103,6.161,-41.8704,-18.666,189.18257,-17.618116,-3.8715336,0.99671954,1.272375,0.7833664
-0.8904934,1.4177415,3.596091,5.5632,-41.980198,-18.483,188.21507,-18.50382,-4.711717,0.76478064,1.2583857,0.7365356
-1.0997616,1.5536872,3.1601965,5.4412,-42.211998,-17.7022,187.27025,-19.237272,-5.5399632,0.56476724,1.1925361,0.7030612
-1.2755109,1.6303017,2.969633,4.9653997,-41.8948,-18.0926,186.6633,-19.622427,-6.063251,0.3605404,1.089182,0.68066174
-1.3751696,1.7564462,2.9755437,4.6482,-42.2608,-17.8974,185.80026,-20.033905,-6.756608,0.1375113,0.84646803,0.6610934
-1.1984476,1.8063504,3.1132104,5.3436,-42.3096,-17.799799,185.021,-20.25731,-7.2551804,-0.05164376,0.5461482,0.61642766
-0.9753379,1.8469021,3.295544,4.2455997,-42.3462,-17.5192,184.36809,-20.306395,-7.5167313,-0.23931661,0.22824177,0.53177583
-0.81507605,1.9498528,3.782689,4.8434,-42.2852,-18.6782,183.88179,-20.171118,-7.53506,-0.44709072,-0.15659666,0.416281
-1.0057143,2.144681,4.7656584,4.7336,-42.7,-19.5688,183.604,-19.829884,-7.2797,-0.6347469,-0.55260986,0.28926167
-1.1284171,2.3125744,5.9918637,3.5502,-42.3462,-20.1422,183.53812,-19.492802,-6.953169,-0.70998925,-0.82893145,0.22079746
-0.8236802,2.358588,7.669077,4.0748,-41.663,-19.642,183.6709,-18.671965,-5.8851714,-0.7005299,-1.3637383,0.10505283
-0.28917468,2.2728455,9.130288,2.7816,-41.6874,-20.5204,184.00156,-18.064674,-4.686962,-0.5621026,-1.7181834,-0.0560737
0.06681319,2.219799,9.690532,2.3912,-41.6142,-21.9844,184.50497,-17.494661,-3.2748735,-0.5139728,-1.7219805,-0.19425115
0.35007718,2.34325,10.1204405,2.4156,-41.175,-22.1674,185.10262,-16.986267,-1.908153,-0.6301671,-1.5615368,-0.2935584
0.36391866,2.4897454,10.876185,1.6226,-41.0408,-23.8266,185.72046,-16.414246,-0.7204896,-0.8820574,-1.2151521,-0.3178231
0.4890157,2.6989386,11.741539,2.5498,-40.2844,-23.8998,186.25572,-15.63489,0.17634454,-1.197116,-0.7214305,-0.26969334
0.7376386,3.0006082,12.642432,2.3912,-39.6988,-25.937199,186.62679,-14.596812,0.68976283,-1.4813981,-0.19778177,-0.17305073
0.81552494,3.632079,13.306748,1.708,-39.186398,-25.7298,186.7988,-13.334571,0.7953236,-1.6240056,0.38697013,-0.059704248
1.1676971,4.112191,13.308918,1.6348,-38.6984,-26.595999,186.76909,-11.955895,0.44388565,-1.6719854,0.79044425,0.0074109877
2.0858734,4.4419174,13.187712,2.44,-38.491,-28.1454,186.63531,-10.527663,-0.2219485,-1.7946248,0.79660624,-0.095343605
2.1555297,4.5875897,13.994109,3.1842,-37.7468,-29.7802,186.62566,-9.015767,-0.85757136,-1.8720322,0.43841404,-0.39528042
1.342399,4.123638,15.596503,2.8181999,-36.9782,-30.060799,187.09816,-6.9375,-1.3046016,-1.6570302,0.087433,-0.7347703
0.6697779,3.3129766,16.12263,3.3306,-36.6,-31.610199,187.73369,-5.608821,-1.4412822,-1.2195654,0.15414855,-0.8054494
0.19527708,2.549376,16.032772,4.148,-36.1242,-31.890799,188.17558,-4.928396,-1.573089,-0.83442724,0.28456527,-0.69824827
-0.035838205,2.1911435,15.839291,4.0504,-36.1974,-32.9644,188.73354,-4.234544,-1.8519329,-0.38240695,0.30479977,-0.43699846
0.10302549,2.109142,15.631818,4.7824,-35.5874,-33.818398,188.98613,-3.9875705,-2.0406787,-0.07171171,0.27287424,-0.23716825
0.6679823,2.020033,14.831182,4.9653997,-35.807,-33.245,189.18056,-4.033764,-2.3376148,0.47570214,0.20464319,-0.025896821
0.84844524,2.060061,13.575124,5.1605997,-36.173,-33.4402,189.1872,-4.5263777,-2.4856086,0.9135666,0.13291481,-0.039003447
0.5729624,1.8989012,12.287717,5.1605997,-36.148598,-33.0498,189.21931,-5.324409,-2.5853124,1.1695538,0.07662462,-0.13428043
0.20290859,1.5497218,10.976143,5.7096,-37.0636,-32.391,189.33221,-6.328014,-2.6460304,1.299221,-0.024048239,-0.21358633
-0.030900165,1.1857284,9.851018,5.9048,-37.1368,-32.2934,189.51541,-7.428224,-2.6377895,1.3213542,-0.12661964,-0.2158013
0.035389293,0.9487024,8.925509,6.0634,-38.088398,-32.024998,189.7621,-8.905168,-2.511004,1.2633486,-0.19460088,-0.12124043
0.69776016,1.2698247,8.48535,6.1122,-39.4548,-30.987999,189.89131,-10.661329,-2.26007,1.2430141,-0.12025785,0.036905054
1.196203,1.7233015,8.606032,5.0141997,-39.2962,-30.4024,189.88457,-11.369608,-2.1754985,1.349699,-0.07810681,0.024281394
1.6711528,1.9999814,8.601394,5.6608,-40.6504,-29.743599,189.89612,-12.921783,-2.0077527,1.5819877,-0.04546516,-0.15852852
1.7160441,2.086921,8.213459,5.5388,-40.894398,-29.2678,190.05106,-14.276994,-1.9524432,1.7689778,-0.0076108347,-0.3599242
1.3965678,2.1180456,7.3396497,5.8072,-41.5776,-27.328,190.25754,-15.282059,-1.9856528,1.9320694,0.12643644,-0.59610987
0.65526307,2.1291935,6.180108,6.588,-42.0778,-27.5354,190.87328,-17.45106,-2.2938333,1.9555681,0.28544793,-0.77628845
-0.029478608,2.1944356,5.2837787,6.466,-42.370598,-26.1812,191.24637,-18.549004,-2.5808868,1.8494993,0.38533804,-0.8650038
-0.94092125,2.3844004,4.511499,7.6006,-43.7492,-24.7538,191.83105,-20.092333,-3.1405523,1.6229897,0.4607969,-0.88580453
-1.3131448,2.5066543,4.2018986,7.1126,-43.541798,-23.8632,192.39198,-21.447657,-3.7942946,1.3705997,0.48960814,-0.8367255
-1.7744027,2.7827358,4.0941596,8.2716,-44.4324,-23.302,192.89299,-22.591612,-4.4789753,1.1178267,0.44692418,-0.76063377
-2.1487212,3.1992521,4.3188405,9.455,-44.591,-22.4236,193.33926,-23.526361,-5.1112294,0.90150917,0.27085912,-0.65011847
-2.212392,3.6007297,4.8725,9.943,-44.7496,-20.7766,193.7537,-24.280952,-5.568475,0.7841491,0.015504786,-0.5588051
-1.9885341,3.99293,5.649942,9.8331995,-45.261997,-21.850199,194.19461,-24.921,-5.7465563,0.72076434,-0.33364433,-0.48812595
-1.9614497,4.2309284,5.930213,10.0162,-45.445,-20.496,194.69653,-25.509619,-5.6870475,0.68545806,-0.48482847,-0.48496172
-2.085275,4.4443116,6.1219735,9.6136,-45.481598,-20.984,195.25742,-26.045404,-5.500029,0.5765915,-0.5800055,-0.47511926
-2.3678656,4.5269866,6.4128695,10.223599,-45.2864,-21.0816,195.83168,-26.472023,-5.262342,0.37836006,-0.5481133,-0.41974503
-2.5948658,4.500276,6.87899,10.919,-45.2864,-20.1056,196.32715,-26.71764,-5.054624,0.11497856,-0.3635714,-0.29519045
-2.629432,4.583325,7.419332,10.2114,-45.6036,-20.3008,196.55878,-26.766165,-4.9817157,-0.16484036,-0.102321595,-0.12188993
-2.4856303,4.6727333,7.8539543,10.187,-46.115997,-21.5818,196.70139,-26.794468,-5.330978,-0.39759532,0.09189624,0.016220903
-2.2443397,4.8606033,8.463653,9.894199,-46.0428,-21.6794,196.54254,-27.317152,-7.427055,-0.6872567,0.23616903,0.115394905
-2.3369653,5.0798974,9.611149,10.2114,-45.7012,-22.1552,196.35959,-26.751137,-7.5768404,-0.89736235,0.22987385,0.14428943
-2.7688942,5.3061495,10.816404,10.125999,-45.2986,-22.9238,196.22423,-26.25557,-7.6638293,-1.0037642,0.33747473,0.22542726
-3.118373,5.200281,11.44997,10.321199,-45.3596,-22.5334,195.78291,-25.187124,-7.9378757,-0.9519705,0.6349967,0.41876245
-3.0261962,5.054609,11.298537,9.6258,-45.4572,-23.6192,195.16704,-24.470457,-8.3018465,-0.93370116,0.69370174,0.64710414
-2.681057,5.039944,11.854815,9.028,-45.6158,-24.4,194.4117,-23.778967,-8.592556,-0.99736905,0.26214913,0.75410545
-2.642675,4.898312,13.309068,9.1133995,-45.945198,-25.6688,193.73122,-23.034235,-8.515397,-0.91456586,-0.21285355,0.78691363
-2.6684875,4.5177836,14.90428,8.052,-45.103397,-25.559,193.19292,-22.397978,-8.021954,-0.46159628,-0.49881777,0.86165637
-2.4687212,3.90614,14.880338,6.7344,-45.5914,-26.84,192.83176,-22.199871,-7.581312,0.088981815,-0.39126685,0.9551847
-2.4640825,3.5402014,13.199758,6.9296,-45.6646,-26.7424,192.17499,-22.367317,-6.988183,0.6051862,-0.06944678,1.0901979
-2.567108,3.8670099,11.043256,6.3196,-46.103798,-26.168999,191.32625,-22.970175,-6.5894146,0.7574196,0.10222167,1.2216306
-2.191293,4.1668835,9.654618,5.5022,-46.4088,-26.2788,190.29501,-23.711452,-6.258627,0.6210741,0.04931221,1.3077313
-1.733402,4.4300213,9.320253,4.3676,-47.128597,-25.314999,189.25092,-24.33578,-5.840603,0.44004613,-0.047746744,1.2513744
-1.1626842,4.493468,9.428142,3.2696,-47.1774,-25.4126,188.31758,-24.767006,-5.3546567,0.28396574,-0.14488897,1.0854682
-0.69574004,4.2161894,9.569474,2.3546,-47.4824,-25.229599,187.57162,-25.063799,-4.8581223,0.23480341,-0.207058,0.8700999
-0.48579848,3.8218942,9.493608,2.562,-47.458,-25.132,187.16661,-25.231232,-4.5446687,0.25134072,-0.20372722,0.7021453
-0.47038582,3.3059437,9.293243,1.9275999,-48.4096,-25.741999,186.69255,-25.453566,-4.1301413,0.2955069,-0.13942648,0.56175286
-0.5411644,2.8562827,8.9032135,0.8174,-48.7024,-25.2662,186.35083,-25.352274,-3.774519,0.39058402,0.028028522,0.49723563
-0.4679168,2.3933787,7.782502,1.2444,-47.982597,-25.3394,185.7944,-25.750565,-3.6096694,0.5269795,0.35306278,0.5006663
-0.38052842,2.2530935,6.8580413,1.1223999,-48.2754,-24.180399,185.252,-26.217115,-3.7024796,0.55674005,0.563718,0.52514756
-0.35277066,2.3026235,5.9945574,0.6832,-49.1782,-24.0096,184.83008,-26.548985,-3.8612783,0.52707946,0.7251943,0.54160166
-0.33316812,2.4750807,5.196465,0.6832,-49.1782,-24.107199,184.13844,-27.029848,-4.20893,0.42955416,0.8594081,0.525897
-0.45257893,2.6889129,4.6561236,0.3782,-49.373398,-24.107199,183.39651,-27.44562,-4.6572022,0.30338418,0.9241585,0.4652768
-0.76210433,2.9057379,4.369568,0.7564,-49.7882,-23.9242,182.67033,-27.769455,-5.174957,0.18680686,0.900027,0.39874443
-1.1340286,3.167005,4.496685,0.6466,-50.239597,-23.9364,181.80127,-28.060713,-5.854258,0.09890754,0.7266432,0.347134
-1.1671734,3.3067667,4.7515926,0.24399999,-50.2762,-24.3268,181.43384,-28.16497,-6.126706,0.09620961,0.5274958,0.32994717
-1.337012,3.5544918,5.0038815,0.732,-50.4104,-23.9364,180.80093,-28.364971,-6.4841595,0.11609437,0.34210452,0.32994717
-1.3266122,3.71827,5.137358,-0.366,-50.4958,-24.522,180.51881,-28.47124,-6.56571,0.12886791,0.13604575,0.34708402
-1.1659014,4.018892,5.3769283,-0.46359998,-50.4836,-24.2292,180.20607,-28.630856,-6.522377,0.09389471,-0.14398967,0.35221344
-0.94436294,4.310386,5.822549,-0.2928,-51.179,-24.156,179.98474,-28.745996,-6.265697,0.0285781,-0.3612232,0.32766557
-0.6521955,4.6143746,6.4264116,0.0,-51.3742,-24.644,179.91702,-28.775698,-5.990041,-0.059471093,-0.5407856,0.26519677
-0.43918636,5.092991,7.561712,-0.2928,-51.3498,-25.5224,179.98257,-28.68321,-5.2904105,-0.20149559,-0.6760819,0.12508748
-0.31094694,5.397129,9.023971,-1.2078,-51.728,-25.2418,180.19618,-28.493225,-4.7143397,-0.28641385,-0.7554378,-0.01710356
-0.13429976,5.444864,10.572196,-1.1101999,-51.788998,-26.400799,180.52812,-28.22541,-4.1651173,-0.25643682,-0.68932176,-0.15001838
0.09292495,5.244948,11.425205,-1.525,-52.0696,-26.3154,180.9026,-27.995775,-3.7511568,-0.14304039,-0.39203292,-0.23323794
0.12060791,5.2438254,11.39206,-1.6348,-52.3746,-26.9132,181.1177,-27.898426,-3.6245694,-0.07487596,-0.0238817,-0.24877603
0.04451719,5.3899465,11.032631,-1.22,-51.9964,-26.8034,181.24869,-27.838087,-3.6470497,-0.08350268,0.22887461,-0.24003273
0.04451719,5.3899465,11.032631,-1.1467999,-52.6186,-27.0108,181.24869,-27.838087,-3.6470497,-0.08350268,0.22887461,-0.24003273
-0.13691841,6.102596,10.509573,-0.6588,-53.0212,-28.0844,181.34059,-27.32842,-4.637225,-0.30578235,0.45022166,-0.24504556
-0.07855974,6.232107,10.821492,-0.060999997,-53.1676,-28.194199,181.33354,-27.156506,-4.9086246,-0.2935584,0.4042902,-0.22136371
0.17492636,6.446912,10.791041,0.23179999,-53.436,-28.389399,181.32973,-26.999916,-5.163262,-0.1559305,0.41243395,-0.17681451
0.45587096,6.502502,10.268058,0.93939996,-53.265198,-29.0604,181.30476,-26.862423,-5.52642,-0.10909973,0.27347377,-0.19866443
0.6732944,6.4958434,9.842488,1.2078,-53.9118,-29.865599,181.36507,-26.768766,-5.7788467,-0.21485202,-0.016270865,-0.33504325
0.6756138,6.279991,10.018686,0.90279996,-54.2168,-30.1584,181.51529,-26.648542,-5.8539014,-0.33724156,-0.21272032,-0.45601723
0.5749825,5.702315,10.69879,1.2932,-54.2534,-29.5728,181.94862,-26.31814,-5.842798,-0.44485912,-0.3525465,-0.5971091
0.12846388,4.9287634,11.50167,1.9886,-54.436398,-30.255999,182.55219,-25.876366,-5.8071647,-0.4008928,-0.19180302,-0.67994565
-0.15704466,4.332832,11.399018,2.684,-54.668198,-31.8176,182.93787,-25.609972,-5.8776026,-0.2696267,0.048929173,-0.63491344
-0.29373863,4.0165725,10.954296,2.8792,-54.741398,-31.6346,183.39922,-25.325064,-6.1330075,-0.16410758,0.15153389,-0.52478117
-0.052148707,4.05069,10.648362,2.562,-55.1074,-31.6346,183.7288,-25.154152,-6.407922,-0.06981317,0.090297475,-0.3887521
0.2243816,4.222698,10.583494,3.1598,-55.375797,-32.2324,183.903,-25.092453,-6.5308022,0.03515639,-0.019851455,-0.33660874
0.5177461,4.261978,10.390311,4.5383997,-55.766197,-32.329998,184.17671,-25.092583,-6.6115775,0.16199253,-0.1398595,-0.35646018
0.8097639,4.221127,10.080262,3.9284,-56.1688,-32.7326,184.40128,-25.158192,-6.6050873,0.2551045,-0.2667456,-0.43458363
0.9445874,3.9836524,9.670106,4.6116,-56.2664,-31.7566,184.8452,-25.310461,-6.4941425,0.29190964,-0.3255672,-0.56363475
0.8513632,3.5814264,9.012149,4.6848,-57.096,-32.3544,185.50568,-24.46749,-3.2836556,0.23493664,-0.2598009,-0.7186826
0.459986,3.3142486,8.605509,5.4778,-57.1326,-32.1592,185.94469,-24.390158,-2.8504755,0.12452125,-0.12532063,-0.7983882
-0.026710313,3.0086884,8.395119,5.3557997,-57.547398,-31.3906,186.60526,-24.452396,-3.0365682,0.016304173,0.028045176,-0.8173903
-0.18375498,2.857405,8.234034,7.0394,-57.95,-32.183598,187.22664,-24.43174,-3.3508213,0.004013591,0.14383978,-0.7882293
-0.28161797,2.8651114,8.037186,7.259,-57.6694,-32.0738,187.59593,-24.407902,-3.6111,0.032391846,0.23528637,-0.751191
-0.42482117,3.0050972,7.7320743,8.0276,-58.254997,-32.086,187.9283,-24.402529,-3.9087398,0.100672856,0.274906,-0.6990477
-0.4177882,3.1408935,7.4487357,8.3082,-58.5966,-32.0006,188.23077,-24.429485,-4.2128944,0.17045271,0.23890026,-0.66404116
-0.37072718,3.3975217,7.1725793,8.9182,-58.5844,-32.2934,188.66829,-24.547571,-4.6184435,0.2673951,0.1143124,-0.6466545
-0.45968673,3.7408652,7.0299,9.2842,-59.2188,-31.3296,189.14865,-24.76223,-4.905938,0.3821738,-0.04729709,-0.67241806
-0.4978443,3.8540661,6.944457,10.6628,-59.5116,-31.231998,189.51086,-24.956068,-5.036282,0.4568499,-0.13314797,-0.70236176
-0.6371569,3.8627453,6.6863317,10.4676,-59.4628,-31.8176,190.1187,-25.318426,-5.175864,0.538121,-0.18918836,-0.7372684
-0.8261492,3.871125,6.3524904,11.651,-59.816597,-31.2442,190.54338,-25.591652,-5.260289,0.542884,-0.17155187,-0.7413985
-1.2491747,4.048221,6.118757,11.8462,-59.8654,-30.6586,191.17711,-26.000608,-5.4110575,0.4645107,-0.119658306,-0.71548504
-1.4223055,4.2981906,6.1534724,12.9198,-60.451,-30.9636,191.9502,-26.445919,-5.671547,0.34974864,-0.019385146,-0.6647406
-1.7395371,4.5570636,6.298097,13.8104,-60.8536,-30.7684,192.45035,-26.693314,-5.9369836,0.2686941,0.07191156,-0.6260869
-1.9951183,4.920234,6.455965,14.310599,-60.8048,-30.378,192.89241,-26.87882,-6.2470875,0.17784704,0.08843224,-0.5773409
-2.043077,5.131672,6.726061,14.7864,-61.305,-30.292599,193.29924,-27.000261,-6.5460653,0.10675153,0.044366002,-0.5501784
-2.107122,5.278691,7.1526775,16.3846,-61.3416,-30.487799,193.70169,-27.079283,-6.8169894,0.07074579,0.0200513,-0.5362557
-2.2950668,5.322535,7.6129627,16.2626,-61.670998,-30.012,194.09558,-27.457863,-7.3250003,0.07266099,0.040535603,-0.52025133
-2.6886885,5.265523,8.040328,17.3484,-61.9638,-29.9144,194.40897,-29.179304,-9.397215,0.11264701,0.1337475,-0.45451838
-3.0377932,5.3094416,8.112154,17.2386,-62.2322,-29.7314,194.68587,-29.462894,-10.1073265,0.14871937,0.23666865,-0.34385318
-3.4593222,5.5105543,8.013318,18.7392,-62.1956,-30.3048,194.80562,-29.703856,-10.693318,0.16875401,0.31365964,-0.1264531
-3.4944122,5.7204213,7.9359555,19.0198,-62.6714,-29.633799,194.75516,-29.951313,-11.146437,0.13081641,0.2820339,0.033107962
-3.3993924,6.0160303,8.180912,19.6054,-62.8788,-29.0604,194.5819,-30.123165,-11.379477,0.005745597,0.18883863,0.20294449
-3.2453403,6.103194,8.701726,20.191,-63.317997,-29.4508,194.3506,-30.178213,-11.43044,-0.07132868,0.043250192,0.27122548
-3.11538,6.0386257,9.520244,19.6908,-63.232597,-29.0604,194.20404,-30.168753,-11.371987,-0.11183097,-0.12838495,0.3285316
-3.0178912,5.9144263,10.266786,19.8738,-63.5864,-29.1702,194.00795,-30.117369,-11.159192,-0.097575225,-0.1512008,0.399777
-2.832565,5.716531,10.954595,20.0812,-63.5742,-29.1702,193.75653,-30.086605,-10.889732,-0.03910337,0.023132274,0.5074278
-3.058892,5.971962,10.695048,19.7518,-64.3062,-29.279999,193.29185,-30.157934,-10.754082,0.09246248,0.6537157,0.71365315
-3.3423057,6.126762,9.099912,19.7152,-64.8918,-28.609,192.45695,-30.390894,-10.940001,0.06087002,0.9089368,0.8766449
-3.0495396,6.203975,8.594735,20.0934,-65.3798,-28.035599,191.41429,-30.635473,-11.205859,-0.11889223,0.54408306,0.9752027
-2.3773675,6.1816044,9.545832,18.9832,-65.8312,-27.1694,190.46945,-30.714697,-11.151726,-0.2517071,0.0070779095,0.9444263
-2.0858734,5.7430167,11.404555,18.5318,-67.0268,-27.4988,189.83917,-30.614422,-10.659773,-0.18943816,-0.54433286,0.8164577
-1.9255368,4.9556236,12.502222,19.032,-66.7828,-26.901,189.46756,-30.537413,-9.91578,0.09860777,-0.5250643,0.75337267
-1.8911201,4.299612,11.841422,17.69,-67.954,-26.0592,189.10521,-30.746567,-9.271873,0.46276206,-0.09774177,0.7394167
-2.197129,4.2189574,10.20723,17.9706,-68.3322,-26.5472,188.54665,-31.24248,-8.952636,0.55111104,0.33162922,0.79623985
-2.2853403,4.466907,9.01619,17.6412,-69.027596,-24.522,187.78618,-31.789547,-8.874675,0.3999102,0.5085769,0.8350101
-2.2025158,4.857087,8.446219,17.7144,-69.4424,-23.948599,186.94963,-32.20451,-8.891532,0.16072683,0.5041137,0.75985104
-2.0779426,4.898312,8.535703,17.507,-69.637596,-22.4968,186.17853,-32.445244,-8.911016,0.0014655436,0.31226072,0.6341474
-1.7489643,4.638691,8.996886,16.9702,-70.5648,-22.899399,185.58745,-32.536102,-8.8384695,-0.013239854,0.10193855,0.5183528
-1.5131354,4.094384,9.272893,17.1532,-70.9186,-21.2524,185.31862,-32.538116,-8.7281065,0.09432772,-0.050894335,0.40060967
-1.3206267,3.5024178,8.854805,16.6408,-70.9674,-20.2764,185.43373,-30.20737,-8.313061,0.23447032,-0.03663859,0.33760795
-1.1477952,3.1886277,8.331747,16.9214,-71.504196,-20.483799,185.2689,-30.010094,-8.138978,0.2822171,0.12823507,0.33752468
-0.8074445,2.9836242,7.258172,16.47,-72.4924,-18.7636,184.9351,-30.291485,-8.129528,0.29598984,0.4978352,0.35416195
-0.57520694,2.978686,6.153248,16.4456,-73.0414,-17.409399,184.29057,-30.70763,-8.422784,0.26972663,0.7835329,0.3383074
-0.46021047,2.9782374,5.2896147,16.555399,-72.8218,-16.7262,183.69572,-31.018951,-8.850467,0.2251941,0.90765446,0.30173546
-0.48849195,3.0648775,4.7766566,16.7018,-73.9076,-15.5794,183.07362,-31.294098,-9.383811,0.1505513,0.92077774,0.25403866
-0.5777508,3.140594,4.4853873,15.981999,-74.5298,-15.1036,182.6755,-31.446169,-9.748839,0.10218836,0.8314962,0.21673392
-0.70763624,3.2092776,4.4075007,16.3724,-74.5054,-13.3468,182.14671,-31.62996,-10.242433,0.07952239,0.67103577,0.18112788
-0.888997,3.202469,4.407052,15.652599,-74.9568,-12.968599,181.73788,-31.778458,-10.608406,0.08408557,0.4260735,0.14740372
-0.9971102,3.1794999,4.5338697,16.4334,-75.3228,-12.2,181.45677,-31.911184,-10.812835,0.10841692,0.17584859,0.1561137
-0.9010428,3.121291,4.661735,15.7136,-75.7864,-10.1626,181.26474,-32.043724,-10.861692,0.12295578,0.020401033,0.17509915
-0.94054717,3.159299,4.648118,15.981999,-76.2988,-10.0772,181.12537,-32.17635,-10.79351,0.1021384,-0.04748028,0.19268568
-1.0139444,3.3022776,4.641085,15.652599,-76.9332,-8.4424,181.0049,-32.283707,-10.667392,0.039053407,-0.086983345,0.21603446
-0.99748427,3.4803462,4.7446346,14.8596,-76.677,-8.0398,180.92465,-32.32045,-10.557194,-0.04806317,-0.12498756,0.24229766
-0.98326874,3.8471081,4.8870893,14.7254,-77.5188,-6.9905996,180.80553,-32.29918,-10.354191,-0.19508384,-0.16615601,0.24989185
-0.9307459,4.456582,5.2275896,14.4936,-78.1288,-6.6124,180.6732,-32.066795,-10.025768,-0.4083371,-0.27170846,0.2249443
-0.52141225,4.984728,5.85921,13.1882,-78.506996,-5.9414,180.66963,-31.692305,-9.695484,-0.61113167,-0.49000785,0.10698468
-0.2252046,5.4872856,6.829236,13.969,-78.824196,-6.0512,180.86884,-31.112627,-9.266563,-0.8150754,-0.7122875,-0.12248947
-0.3481319,5.804368,7.976208,12.9564,-79.0316,-5.6608,181.13376,-30.796919,-8.737747,-0.9877431,-0.8127272,-0.3390069
-0.7662194,5.8537483,10.179322,13.2492,-79.2756,-7.0394,181.72705,-30.20569,-7.8628306,-1.1398765,-0.8003034,-0.53094316
-0.9220669,5.723863,12.167932,13.054,-79.361,-6.8441997,182.45628,-29.140612,-7.505014,-1.1302506,-0.6164443,-0.5985413
-1.00549,5.617695,13.810878,13.920199,-80.080795,-7.7348,183.13191,-28.107876,-7.351339,-0.97941613,-0.20515946,-0.6220733
-1.0250176,5.7706246,14.15078,14.2252,-80.080795,-8.0276,183.49304,-27.508068,-7.425617,-0.78716344,0.27315736,-0.61411273
-0.68017775,5.6655045,13.837812,14.212999,-80.276,-8.3204,183.87987,-26.759912,-7.8275323,-0.6519171,0.65937805,-0.64282405
-2.1103392,7.3430915,12.879982,15.225599,-79.8612,-8.0154,184.16182,-26.011282,-8.941189,-0.5166041,0.92181027,-0.6278189
-1.5242835,7.332617,11.876287,15.518399,-80.1784,-7.5396,184.33733,-25.560446,-9.79566,-0.4558507,0.56248564,-0.6830266
-1.7693899,7.185523,11.474286,15.7258,-80.0076,-7.8202,184.74019,-25.113626,-10.440821,-0.44710737,0.15438169,-0.9381478
-2.348712,6.028974,11.840824,16.9214,-79.9466,-7.8202,185.48676,-24.59617,-10.8215,-0.45636696,-0.26398104,-1.0664161
-2.5112932,4.899285,12.328418,16.897,-80.459,-7.442,186.4158,-24.04024,-10.994511,-0.3437033,-0.25665334,-1.0327586
-2.4587703,4.055179,12.154389,18.226799,-79.8856,-7.7226,187.31564,-23.581144,-11.156396,-0.14978522,-0.10625191,-0.88933516
-2.5235634,3.7429602,11.848829,18.6294,-79.6782,-7.6127996,188.04652,-23.315304,-11.375113,0.023049004,0.008543453,-0.6980484
-2.4479964,3.7689972,11.368118,19.8372,-79.4952,-6.9296,188.40793,-23.259308,-11.534605,0.24989185,0.052359875,-0.43514988
-2.0985925,4.011036,10.834661,20.2398,-79.1902,-6.527,188.7645,-23.37251,-11.72819,0.43523315,-0.011008231,-0.27005973
-1.4243256,4.149301,10.13473,19.459,-78.824196,-5.7462,188.98973,-23.703451,-11.795384,0.6302337,-0.2002632,-0.20907313
-0.9316437,4.12102,9.596035,19.947,-78.8608,-3.5014,189.23984,-24.197021,-11.700013,0.7531562,-0.37970904,-0.27372357
-0.73075527,3.8358853,8.950199,20.4594,-78.6046,-2.623,189.49226,-24.552855,-11.423016,0.8258505,-0.4801154,-0.39025095
-0.8854057,3.3661728,8.0267105,20.374,-78.2386,-2.2203999,189.99774,-25.107124,-10.987399,0.78817934,-0.47053942,-0.5179531
-1.192088,3.046472,7.2806177,21.1914,-77.579796,-0.7442,190.57674,-25.65434,-10.820108,0.6191089,-0.30191863,-0.56415105
-1.412579,2.8754363,6.5718594,21.411,-76.9332,1.1223999,191.28073,-26.159428,-10.84249,0.35191366,-0.035406202,-0.5271294
-1.3972411,2.934992,6.368801,21.411,-76.9942,1.5982,191.55869,-26.297153,-10.9626665,0.17833002,0.12811849,-0.48183078
-1.1943326,3.0801406,6.2496896,21.4476,-76.042595,1.1345999,191.88007,-26.381538,-11.243601,0.06451723,0.23010701,-0.4329349
-0.9843162,3.1800983,6.1761427,22.1552,-75.6644,2.5132,192.12784,-26.391037,-11.577322,0.07540888,0.21821612,-0.40870348
-0.800636,3.3193362,6.0951138,22.350399,-75.6522,2.6108,192.3673,-26.413836,-11.885312,0.1599774,0.09484399,-0.4107519
-0.6652888,3.4905965,6.0875573,22.2528,-75.713196,3.294,192.65718,-26.502829,-12.098137,0.26874405,-0.019801494,-0.44052908
-0.7795371,3.632004,5.9177184,22.875,-74.932396,3.9894,192.8957,-26.614622,-12.190661,0.37992552,-0.14120845,-0.5000002
-1.1758523,3.7758806,5.832425,22.9116,-74.2004,4.1967998,193.34647,-26.85573,-12.261186,0.47438648,-0.28951147,-0.5536424
-1.5068507,3.8053591,5.688324,23.2166,-73.9808,4.8922,193.89108,-27.155613,-12.251108,0.5315094,-0.35954115,-0.57988894
-1.8459295,3.9311295,5.2213798,23.9608,-72.8828,6.283,194.48047,-27.493944,-12.210863,0.50224847,-0.33605915,-0.58092153
-2.0705357,4.1686044,4.8901567,23.948599,-73.017,7.1492,194.86984,-27.711311,-12.197253,0.38846898,-0.2927923,-0.5709958
-2.3255181,4.481347,4.7842884,24.8758,-72.1142,8.2472,195.42914,-27.956732,-12.210951,0.20955609,-0.23903349,-0.55562425
-2.446575,4.7833905,5.234997,24.3878,-71.919,8.9304,195.95033,-28.03572,-12.265771,-0.008943147,-0.23047338,-0.5491292
-2.5988312,4.957868,6.016554,25.9982,-71.516396,8.356999,196.46631,-27.934748,-12.321436,-0.116344176,-0.26812786,-0.54713076
-2.6910827,5.034931,7.005584,25.7176,-70.943,9.4428,197.0026,-27.736345,-12.33546,-0.12607005,-0.35188034,-0.54216784
-2.820669,5.118579,7.646706,26.5472,-70.3818,9.2598,197.33965,-27.784426,-12.439312,-0.06508346,-0.3919663,-0.5190023
-3.0839562,5.2144217,7.8983965,26.5716,-69.7474,9.3696,197.75604,-28.341238,-12.9981785,0.0042800535,-0.3721315,-0.4768679
-3.6519806,5.362039,8.584111,26.9742,-69.4058,10.4553995,198.24957,-28.32027,-13.000296,0.047113895,-0.35669333,-0.38355607
-3.929708,5.4035635,9.487922,27.1084,-68.686,10.5652,198.53722,-28.28602,-12.932306,0.098041534,-0.2766047,-0.25430512
-4.0898952,5.498808,9.858799,27.8282,-68.198,10.675,198.83632,-28.31196,-12.842283,0.1821271,-0.15977757,-0.12430475
-4.2437224,5.8665423,9.372626,27.7428,-67.8076,11.467999,198.96573,-28.442024,-12.789906,0.13947645,-0.06679881,0.0023648546
-4.2507553,6.2856774,9.433603,26.949799,-67.588,12.8344,198.97012,-28.520641,-12.74933,-0.105252676,-0.047713436,0.09237921
-3.7832875,6.3567553,10.425551,27.4988,-66.380196,13.2492,198.91954,-28.401026,-12.677521,-0.3230691,-0.05374215,0.08831566
-3.7589715,6.1716533,11.465383,26.8034,-66.246,13.1516,198.88702,-28.224321,-12.63749,-0.3747295,0.08053828,0.07196152
-3.8893807,5.791948,11.997793,27.206,-66.2094,13.4444,198.78287,-27.93791,-12.691059,-0.26799464,0.4243415,0.14996842
-4.2754455,5.7748146,10.921675,26.7424,-65.3188,13.9567995,198.46912,-27.788006,-12.985595,-0.120124616,0.9332182,0.31261045
-4.7202435,6.143522,9.023521,25.071,-64.6356,14.8474,197.58162,-27.848574,-13.768136,-0.19949712,0.9513543,0.5261468
-4.619687,6.257022,8.687361,25.0954,-63.867,15.8356,197.05081,-27.862938,-14.100756,-0.33837405,0.589415,0.6391436
-3.8753147,5.884424,10.009035,23.789999,-64.0622,15.0548,196.13264,-27.69142,-14.219,-0.4070381,-0.196616,0.6799123
-3.6405332,4.9924345,11.319037,23.0092,-63.708397,15.5428,195.6852,-27.468569,-13.799886,-0.17546554,-0.4275557,0.7232125
-3.533767,4.399495,11.261876,22.021,-63.2814,16.043,195.29214,-27.383314,-13.208991,0.05519104,-0.2202812,0.84638476
-3.36318,4.1923966,10.054151,21.3622,-62.439598,15.86,194.70251,-27.561968,-12.73223,0.22687614,0.153549,1.0404694
-2.867281,4.6888943,8.98499,19.9592,-62.4762,16.348,193.83228,-27.934029,-12.44183,0.21458556,0.31482542,1.1408591
-2.3322518,5.092991,8.415694,19.886,-61.817398,16.945799,192.83498,-28.326708,-12.2219715,0.16783805,0.31960508,1.0753093
-2.1109376,5.2235494,7.838093,17.934,-60.6096,17.9462,191.91698,-28.672894,-12.017427,0.03915333,0.064334035,0.84836656
-2.067468,4.9444757,7.9622917,17.7144,-61.0732,17.7388,191.25598,-28.847084,-11.709617,-0.09071382,-0.18179403,0.69208634
-1.9800048,4.173094,8.684144,16.3846,-59.413998,18.4586,190.85182,-28.827656,-11.265032,-0.1847251,-0.37526244,0.5416849
-1.9411738,3.8287773,9.227702,16.787199,-59.353,17.6778,190.59769,-28.702782,-10.773426,-0.1659062,-0.33739147,0.49208957
-1.7934816,3.3643024,9.805977,15.311,-58.987,17.4826,190.3804,-28.505537,-10.339897,-0.057855666,-0.2053593,0.48278004
-1.5628899,3.004723,9.824681,14.6522,-57.9988,18.190199,190.20096,-28.439213,-10.109666,0.098424576,-0.0028977795,0.50421363
-1.4118308,2.7968016,9.082554,14.7132,-56.4372,19.1052,190.07991,-26.32314,-9.568112,0.30816385,0.305799,0.5532094
-1.3900585,2.8485014,8.20478,14.212999,-56.4372,19.397999,189.73361,-26.424166,-9.578358,0.38820252,0.45651683,0.583353
-1.3611037,3.035324,7.4210525,14.1276,-55.9004,19.5078,189.08904,-26.86852,-9.724761,0.45673335,0.5887322,0.6136131
-0.9981577,3.2915037,6.6068745,12.017,-53.9118,20.4228,188.37657,-27.387836,-9.945398,0.51287365,0.67629844,0.6004232
-0.8147768,3.520599,5.7158575,11.7364,-53.1676,21.2158,187.65285,-27.956667,-10.234986,0.51836944,0.74108213,0.5096761
-1.0420015,3.7410898,5.0406175,11.3826,-52.1916,21.532999,187.19302,-28.337698,-10.469629,0.46777487,0.74313056,0.428455
-1.3908815,3.9624038,4.560206,10.3334,-51.0326,22.435799,186.56287,-28.859064,-10.846885,0.36658576,0.65801245,0.3499818
-1.8159271,4.2256165,4.5877395,9.4672,-50.080997,22.6432,186.0232,-29.288109,-11.190676,0.2709424,0.45676664,0.28091806
-2.1542578,4.4408703,5.1191025,9.406199,-49.1904,22.7652,185.6223,-29.615429,-11.406383,0.24551186,0.20654173,0.23600249
-2.4049008,4.384307,5.758205,8.7474,-48.19,23.668,185.38284,-29.891685,-11.4232,0.29119352,-0.11159781,0.2250109
-2.397868,4.3192897,6.595876,8.881599,-47.201797,23.7778,185.22641,-30.273726,-11.154959,0.35542762,-0.31359303,0.31102833
-2.1217864,4.538359,7.161656,8.7474,-45.5426,25.0832,185.12766,-30.60109,-10.7940645,0.40365735,-0.3808748,0.37053272
-1.7538276,4.823269,7.480833,8.3814,-44.6398,25.498,185.02176,-30.965961,-10.360084,0.43363437,-0.36258882,0.3633549
-1.3367127,5.1727476,7.70484,8.5156,-43.8712,24.924599,184.95044,-31.224846,-10.082241,0.41956183,-0.25430512,0.29570672
-1.0335469,5.4164324,7.717784,9.2842,-42.273,25.741999,184.84654,-31.60246,-9.753201,0.34192133,-0.116227604,0.2004131
-0.89468324,5.727529,7.8066688,8.6254,-41.114,26.5472,184.78291,-31.824606,-9.613487,0.22591022,0.013289816,0.079305895
-0.8334066,5.9143515,8.010924,8.5278,-41.1872,26.7424,184.69904,-32.279064,-9.394077,0.09494391,0.13474675,-0.081654094
-1.1043255,5.936049,8.1898155,8.7108,-39.2474,26.400799,184.70084,-32.34714,-9.470892,3.330781E-4,0.20724119,-0.20339414
-1.4308348,5.894225,8.344542,8.9182,-38.7594,26.9986,184.75873,-32.33658,-9.710739,-0.08162079,0.22261274,-0.2842988
-1.6374843,5.7631426,8.27481,8.4911995,-37.149,27.608599,184.86583,-32.2463,-9.998903,-0.16160949,0.17564873,-0.32070425
-1.772682,5.6790466,8.390854,9.2964,-37.087997,26.4496,185.0216,-32.075226,-10.266919,-0.25194028,0.11166443,-0.31084514
-1.7691654,5.5481133,8.704121,8.845,-35.868,26.473999,185.1413,-31.907825,-10.412232,-0.32413495,0.06391769,-0.2637812
-1.6352397,5.5812583,9.025317,9.5526,-35.6118,25.510199,185.30383,-31.599825,-10.569827,-0.36586964,0.031575803,-0.20186198
-1.2997522,5.620912,8.969876,9.2109995,-34.440598,26.2178,185.39632,-31.375217,-10.647879,-0.37824348,0.07992209,-0.1780802
-1.1299884,5.3735614,8.11582,9.4428,-33.6476,25.8396,185.51065,-31.028557,-10.77677,-0.4787831,-0.010575229,-0.26766157
-1.1180922,4.7140336,7.6196218,9.6746,-32.696,25.1808,185.73387,-30.570688,-10.854115,-0.72481126,-0.36308843,-0.39899424
-1.3038673,4.0405145,8.259847,9.8088,-31.9884,25.01,186.21886,-29.850332,-10.737155,-0.93320155,-0.74496245,-0.49247262
-1.8108395,3.35278,10.1413145,9.9064,-32.086,24.9002,187.01016,-28.6132,-10.268938,-0.94950575,-1.0187527,-0.48977467
-2.237606,2.9032688,11.380613,11.4558,-30.8172,24.0584,187.53102,-27.981127,-9.892533,-0.6906874,-0.9611968,-0.3369418
-2.2870612,2.8560581,10.915689,12.1634,-30.744,23.094599,188.33682,-27.14664,-9.115793,-0.21400268,-0.6506681,0.06909705
-1.7822587,3.692757,9.698836,12.7123995,-29.597198,22.435799,188.65556,-26.914,-8.606316,-0.16986983,-0.33421057,0.35066462
-0.8880244,4.340538,8.959028,12.749,-28.792,22.545599,188.88367,-26.775423,-8.216437,-0.30636522,-0.13812749,0.46705875
0.38898295,5.0885015,8.786346,13.005199,-27.4012,21.8014,188.70377,-26.682259,-7.78953,-0.5295109,-0.122256316,0.37894294
1.0383353,5.549984,9.19149,12.5171995,-27.3402,21.7038,188.88126,-26.466185,-7.037204,-0.6706694,-0.20031317,0.098890886
0.84702367,5.372888,9.577106,12.749,-26.4984,20.6546,189.23651,-25.926565,-6.8109474,-0.6791129,-0.23015696,-0.2284083
0.17559972,5.0022354,9.578977,13.066199,-26.0348,20.7644,189.46967,-25.325405,-6.690379,-0.62678635,-0.18117782,-0.41021898
-0.5738602,4.645275,9.261147,13.5786,-25.973799,19.788399,190.23346,-24.756506,-6.696304,-0.5598543,-0.034640122,-0.4622458
-0.96591073,4.582053,8.617405,13.822599,-24.765999,19.1418,190.99103,-24.246258,-6.8293343,-0.51760334,0.09802488,-0.41489872
-0.9590274,4.670115,8.393996,13.8348,-24.412199,18.9466,191.67757,-23.808142,-7.031249,-0.47888303,0.11241386,-0.35436177
-0.7639,4.832322,8.570943,14.2252,-22.4602,18.7026,191.91197,-23.580639,-7.1526155,-0.38945156,0.052359875,-0.31639087
-0.5327847,4.955474,8.934711,13.920199,-22.692,17.921799,192.56427,-23.405077,-7.199873,-0.15479805,0.016387442,-0.31529173
-0.47412676,4.901604,8.546028,14.9572,-21.716,16.9702,193.16293,-23.444233,-7.172982,0.1754822,-0.012174005,-0.32531738
-0.5499182,4.835988,7.7106013,15.006,-20.5204,17.6778,193.41122,-24.28813,-6.7732625,0.38768625,-0.027329057,-0.34165487
-0.7117513,4.792369,6.6736875,15.2378,-19.9348,16.8116,194.1281,-24.622652,-6.8637443,0.5023151,-0.059138015,-0.36025727
-0.9083003,4.7263784,6.06773,15.9088,-18.056,16.47,194.79103,-24.899149,-6.921028,0.50094944,-0.122356236,-0.37519583
-0.99987847,4.7388735,5.8100543,14.9572,-17.0556,16.091799,195.12321,-25.302654,-6.967755,0.45173717,-0.21824943,-0.39031756
-0.96426475,4.761693,5.8235216,15.799,-16.0186,16.6042,195.98799,-25.667355,-6.9444723,0.3908172,-0.29703903,-0.42785546
-1.0547206,4.6934586,6.0366054,15.86,-14.5546,15.7624,196.96115,-25.956715,-6.869406,0.2994705,-0.3774441,-0.5073279
-1.366341,4.584223,6.7290535,16.5066,-13.4444,15.884399,198.05167,-26.154259,-6.772762,0.20462653,-0.41891232,-0.55300957
-1.5095441,4.431892,7.8352494,17.2508,-12.4074,14.8474,198.6394,-26.258047,-6.661686,0.18715659,-0.39559686,-0.5458817
-1.5150808,4.2717047,8.864008,17.0434,-10.2968,14.603399,199.61981,-26.339184,-6.6080375,0.29190964,-0.23203886,-0.49825153
-1.6493806,4.300061,9.144579,17.6778,-9.3574,13.4566,200.73837,-26.559454,-6.6407433,0.43356776,0.008660031,-0.43658212
-2.1169233,4.731691,8.1859255,17.7388,-7.8568,13.0906,201.78946,-27.08308,-6.999921,0.51135814,0.28887862,-0.3124106
-2.2295256,5.168932,7.7334213,17.531399,-5.7706,12.4562,201.88669,-27.829834,-7.775027,0.4029579,0.28446534,-0.22829172
-2.2486043,5.5281367,7.665411,17.5924,-4.4895997,11.6144,202.63387,-28.76186,-8.592902,0.2620492,0.12290582,-0.2132699
-2.3736265,5.889811,8.130335,17.7144,-3.7819998,11.333799,203.46617,-29.99924,-9.531268,0.06072014,-0.12748565,-0.24407963
-2.4331822,5.9098625,9.287034,17.604599,-1.8177999,10.1138,203.70966,-30.006994,-9.5365095,-0.11784303,-0.33151263,-0.2616495
-2.4482956,5.753267,10.33113,18.117,-1.5982,10.418799,204.8972,-29.840689,-9.434166,-0.21137136,-0.34984857,-0.25418854
-2.5549872,5.5341973,11.356671,18.4464,-1.037,9.0646,206.1033,-29.587032,-9.331369,-0.249692,-0.15558077,-0.19425115
-2.7233295,5.2368674,11.991284,18.4952,0.0732,8.113,207.16714,-29.34221,-9.378794,-0.20008,0.28020194,-0.025480475
-2.9498808,5.254674,11.740642,18.3244,0.89059997,6.9662,207.08318,-29.243732,-9.5427885,-0.08633384,0.80689836,0.16264203
-3.3298857,5.622558,9.789217,18.6904,2.379,6.3196,207.56172,-29.244864,-10.125578,-0.028544793,1.2130704,0.37054938
-3.482067,5.8973675,8.315586,18.117,2.9889998,6.527,206.49437,-29.361664,-11.049627,-0.25022492,0.84347034,0.56674904
-3.0992942,5.820753,8.811485,18.239,3.4282,4.7824,205.98026,-29.319235,-11.29157,-0.35061467,0.2935584,0.62906796
-2.7602901,5.2602854,10.399814,19.361399,3.8918,4.209,205.25444,-29.086739,-11.098349,-0.21911542,-0.35281298,0.6526998
-2.8587515,4.75668,11.075053,18.7026,4.7336,2.379,204.91112,-29.018324,-10.5385275,0.087582886,-0.42249292,0.7353698
-2.878429,4.4740896,10.384176,19.52,5.0141997,1.8909999,204.48767,-29.221111,-9.94409,0.3695002,-0.2038771,0.9024584
-2.772336,4.7474775,8.818667,20.0446,5.4533997,-0.13419999,204.083,-29.500528,-9.599175,0.46277872,-0.042900458,1.0448493
-2.5201967,5.175067,7.8512607,19.7518,5.4656,-1.2078,204.48315,-30.018345,-9.239917,0.3984613,-0.1102655,1.0837861
-1.7047465,5.4144874,7.4116254,20.4594,5.9414,-1.3908,204.86937,-30.49597,-8.780325,0.24797665,-0.40319103,0.9889255
-1.3170354,5.5418286,7.7385836,20.7888,6.2464,-4.1114,205.4562,-30.770838,-8.074159,0.09056394,-0.7237454,0.8139929
-1.1997195,5.3978024,8.774375,21.4842,5.9291997,-5.4778,205.24481,-30.858175,-7.154903,-0.021167113,-1.0228828,0.5870168
-0.99501526,4.6546273,9.811439,21.8014,6.3073997,-6.9296,206.41316,-30.815907,-6.1785994,-0.025214013,-1.1113983,0.374513
-0.673893,3.8538418,9.981427,21.6062,6.283,-8.979199,207.71848,-30.751251,-5.2366877,-0.051160797,-1.0160048,0.25325593
-0.45789108,3.4202669,10.104054,22.1064,6.1243997,-10.6384,209.04936,-30.628574,-4.4192142,-0.16703866,-0.83219564,0.19949712
-0.33870474,3.2811787,10.232144,22.143,6.8441997,-11.9925995,209.23247,-30.41842,-3.7837145,-0.2761384,-0.41791308,0.18197721
-0.37274727,3.1564558,9.845181,22.240599,6.6856,-13.4566,210.29274,-30.11547,-3.509437,-0.22226301,0.19005436,0.18793932
-0.6096236,3.0829835,9.010653,22.8506,6.8441997,-14.1276,211.24823,-28.553558,-3.5750778,-0.087666154,0.52692956,0.2228792
-1.0118495,3.1014638,7.817293,22.6432,6.6612,-15.689199,211.86914,-28.454414,-3.9179127,0.102771245,0.68322647,0.33495998
-1.1102362,3.1814451,7.051747,23.8388,6.4294,-16.0796,211.5113,-28.54077,-4.1658416,0.2689106,0.63796115,0.4635448
-0.9840917,3.293374,6.2380924,23.1434,6.4904,-17.5436,211.92181,-28.81308,-4.448719,0.4712722,0.49560356,0.57590866
-0.9943419,3.443236,5.6559277,24.143799,6.3928,-18.5196,211.28911,-29.27073,-4.5697856,0.59845805,0.30613208,0.6359793
-0.9213936,3.6186862,5.302633,23.948599,6.4172,-19.6908,211.89555,-29.639614,-4.541658,0.680745,0.106218606,0.6683545
-0.4571429,3.9716814,5.239187,25.034399,6.2708,-19.886,212.35791,-30.25873,-4.331171,0.73282176,-0.11169774,0.62965083
-0.13415012,4.4183497,5.1669865,24.9368,6.1,-21.35,211.95233,-30.921907,-3.9798675,0.7308566,-0.1821271,0.47506928
-0.20111294,4.9134254,5.0252795,25.0222,5.6363997,-23.302,212.67334,-31.560339,-3.6454823,0.6499186,-0.14592151,0.25430512
-0.42684126,5.084237,4.9283895,25.705399,5.0752,-24.4854,213.52992,-32.118465,-3.438064,0.51735353,-0.077990234,0.056623276
-1.0874913,4.96939,5.133842,26.010399,5.1728,-26.1446,214.53174,-32.61458,-3.412917,0.20930627,0.048046514,-0.15393203
-1.3892355,4.863297,5.555371,25.7298,5.5144,-27.7916,215.5565,-32.74458,-3.5547452,-0.022199655,0.18222703,-0.17731412
-1.4960768,4.923975,5.8098297,25.3394,5.5875998,-27.694,215.5728,-32.747257,-3.6254184,-0.1234887,0.24213113,-0.15488131
-0.8629601,5.342212,6.9863553,26.168999,6.0512,-29.633799,216.4978,-32.639328,-3.8823082,-0.40100938,0.20024656,-0.08253675
-0.42729017,5.632883,7.94037,26.5838,6.4049997,-31.5614,217.34735,-31.97797,-4.2664814,-0.4550846,0.08035509,-0.12560375
-0.21091421,5.861829,9.087193,26.8766,6.1976,-32.3544,218.30527,-31.709839,-4.341585,-0.42580703,-0.070945635,-0.22232963
-0.19168578,5.8982654,10.449793,26.6936,6.5758,-33.4158,218.51329,-31.344904,-4.3759894,-0.24446267,-0.29877105,-0.36185604
-0.43671736,5.60535,11.123013,26.9132,6.7344,-35.453197,219.8234,-31.105984,-4.3137417,-0.013106623,-0.4277056,-0.458915
-0.87538,5.457882,11.152716,26.9376,7.2346,-36.1242,221.06062,-31.046991,-4.2441635,0.09740869,-0.36583632,-0.4468909
-1.304017,5.497611,10.957513,27.2304,7.0882,-37.392998,222.57054,-31.08909,-4.1628227,0.12805188,-0.16800459,-0.28866214
-1.3016227,5.879411,10.6842,27.022999,6.588,-39.9428,222.79486,-31.172592,-4.187862,0.11208078,0.11246382,-0.019818148
-1.092579,6.4074073,10.056545,27.840399,6.954,-40.4186,223.62155,-31.261913,-4.2927194,0.09779173,0.32608345,0.13318127
-0.10167875,6.429629,9.167848,27.913599,6.161,-41.7972,224.24655,-31.336254,-4.4564495,-0.096176304,0.083102986,0.110215545
0.28947395,6.4152637,9.817723,28.4138,6.1366,-42.7732,225.0128,-31.251467,-4.4521327,-0.21205416,-0.18763955,-0.03663859
0.5222353,5.979818,10.334572,28.3772,5.2704,-43.858997,225.09341,-31.128345,-4.3671694,-0.1825934,-0.2732073,-0.2108884
0.04511574,5.359346,10.360384,27.9746,4.88,-45.8232,226.23207,-30.94627,-4.262191,-0.096192956,-0.24248086,-0.3968126
-0.7110779,4.6355486,9.838074,28.4748,5.185,-45.6158,227.57771,-30.805136,-4.301783,-0.010591883,-0.013756125,-0.36448735
-0.9168296,4.367922,9.324443,28.365,4.7458,-46.9944,227.75452,-30.782602,-4.399381,-0.026463054,0.04916233,-0.23903349
-0.97990185,4.4366055,9.040655,28.779799,5.0508,-48.1534,228.73859,-30.728924,-4.5387278,-0.061419602,0.070829056,-0.07775708
-0.4560206,4.524742,8.980801,28.621199,3.5746,-49.068398,229.583,-30.657879,-4.5917974,-0.06500019,-0.061003253,0.051277373
0.34274495,4.739472,8.954314,29.4264,3.4404,-50.4348,230.41429,-30.58803,-4.4709587,-0.011624426,-0.3130268,0.03177565
0.7046435,4.698995,8.733299,29.279999,2.4034,-51.423,231.49211,-30.348885,-3.1694295,0.044665772,-0.41426587,-0.15739605
0.37229836,4.319888,8.145747,28.9506,1.4884,-53.2042,231.69978,-30.248768,-2.5579383,0.031525843,-0.36578637,-0.3187724
0.06000468,4.1463084,7.8196125,28.7432,1.2688,-53.887398,232.8884,-30.26317,-2.4058623,-0.040119257,-0.2771543,-0.3923993
-0.2765303,4.034679,7.5061965,28.535799,0.89059997,-54.0948,234.0905,-30.20776,-2.3761387,-0.15186696,-0.14770348,-0.41001913
-0.51078796,4.049044,7.363068,28.621199,0.52459997,-56.0468,235.2289,-30.039177,-2.46409,-0.2851648,-0.018102795,-0.3856045
-0.49051207,4.1591024,7.4728274,28.7188,0.2562,-56.059,235.50818,-29.766119,-2.6270683,-0.3456851,0.07077909,-0.34536868
-0.3354875,4.2983403,7.582661,29.097,-0.2562,-57.620598,236.50616,-29.471718,-2.833078,-0.28421554,0.14272396,-0.3209374
-0.349329,4.3924623,7.4425254,29.5606,-1.1834,-58.621,237.45865,-29.234818,-3.0696676,-0.14908576,0.16051033,-0.31462556
-0.43985975,4.4848633,7.1440735,29.7802,-0.8296,-58.9016,238.39124,-29.11676,-3.3164783,0.027662136,0.1482031,-0.3000201
-0.55695117,4.5806317,6.703166,30.060799,-1.3786,-59.4018,238.55405,-29.146418,-3.5487509,0.17756394,0.115744635,-0.28351608
-0.75013334,4.667646,6.2138515,30.060799,-1.3664,-59.2066,239.41885,-29.255941,-3.681122,0.28483173,0.04559839,-0.2538888
-0.90904844,4.799252,5.94802,30.1218,-2.4156,-60.5974,239.53076,-29.411043,-3.7818615,0.33765793,-0.045781583,-0.22108059
-0.98536366,5.0208654,5.7842417,30.9026,-2.7816,-61.4758,240.46252,-29.708923,-3.8334024,0.38288993,-0.18867208,-0.16587289
-0.9873837,5.3242555,5.889736,30.5854,-3.3794,-62.2688,241.33542,-29.931698,-3.7976182,0.39078388,-0.28568107,-0.1123639
-0.777517,5.5451207,6.1490583,30.255999,-4.1236,-62.5738,241.53871,-30.267145,-3.6525877,0.38763627,-0.3459016,-0.061136484
-0.45587096,5.8227735,6.6398697,30.1096,-5.185,-63.9646,242.46506,-30.605618,-3.4247885,0.37556222,-0.38159093,-0.05287615
-0.25400984,6.0988545,7.1928554,30.5732,-6.0634,-64.2818,243.38574,-31.102873,-3.1374636,0.3857877,-0.37028292,-0.084285416
-0.046986207,6.228142,7.7916303,30.5366,-7.1004,-65.282196,243.57509,-32.70792,-2.5320332,0.4262567,-0.2966227,-0.17020291
-0.17724575,6.1917048,7.838317,30.292599,-8.1984,-65.697,244.55336,-33.127796,-2.4183667,0.4526698,-0.1537322,-0.29580665
-0.52852005,6.180557,7.7287073,30.5488,-9.5282,-67.478195,245.54027,-33.5349,-2.4587927,0.40740448,-0.073060684,-0.34989855
-1.0440216,6.1129208,7.965285,30.317,-10.2114,-68.2712,246.52048,-33.87949,-2.5975318,0.31910548,-0.05319257,-0.3499485
-1.3623756,6.0737157,8.338631,30.5,-10.711599,-67.893,246.70119,-34.052692,-2.68383,0.2814177,-0.06851416,-0.315375
-1.5805472,6.0491004,8.521787,31.341799,-11.9925995,-69.186195,246.95505,-34.281708,-2.783548,0.26098335,-0.10731776,-0.2635314
-1.6370354,5.982137,8.6396265,31.5126,-12.968599,-69.4058,247.19241,-34.479656,-2.8140259,0.17654805,-0.2026114,-0.198348
-1.6407764,5.9156237,8.915633,31.5858,-13.542,-70.1012,247.34978,-34.56641,-2.7806256,0.0799887,-0.24849291,-0.15463151
-1.6773628,5.945252,10.01517,31.3174,-15.372,-70.821,247.6194,-34.576145,-2.6608992,-0.104653135,-0.07875632,-0.06709858
-1.947758,6.0354834,10.64896,32.183598,-15.945399,-70.8332,247.69223,-34.478703,-2.659918,-0.10468645,0.23936658,-0.0041135144
-2.6197803,6.2627077,10.314819,32.0372,-17.140999,-71.4432,247.55594,-34.398758,-2.8606691,0.014605475,0.76702887,0.14200784
-2.6462662,6.1505547,8.260594,33.196198,-18.178,-71.7604,247.06589,-34.43631,-3.3552883,0.010858346,1.0439167,0.31212747
-2.5405474,6.183699,7.5234046,33.8672,-18.8856,-70.7966,246.3706,-34.679882,-4.5075774,-0.25502124,0.6931189,0.4359992
-2.0643256,6.066832,8.00232,35.0262,-19.7518,-71.199196,245.7456,-34.784977,-5.392794,-0.43809763,0.2703928,0.48164758
-1.9025674,6.022315,9.301024,35.8192,-22.045399,-69.9914,245.44507,-34.562054,-5.349672,-0.48845902,-0.19589989,0.46998984
-1.9040637,5.9617867,10.788123,35.831398,-22.021,-71.248,245.21213,-34.180798,-4.9848347,-0.3279154,-0.4263566,0.48184744
-1.7493384,5.4709754,11.217284,35.6728,-23.3386,-70.7966,245.0542,-33.97835,-4.479394,0.049845137,-0.20902316,0.51009244
-1.7663971,5.0481744,10.011953,35.4044,-24.9368,-70.5404,244.8701,-34.02286,-4.2348914,0.25662002,0.092162706,0.5523434
